Subject	Trial	Condition	Left	Mid	Right	Exp_side	Bline_side	Extr_side	response_side	Instruction	Vagueness	c_Vag	Number	c_Num	Order	c_Ord	Quantity	c_Qty	Item	c_Itm	response_category	RT	RT_log	isBorderline
s01	1	2	24	15	6	right	mid	left	right	Choose the square with 6 dots	Crisp	-0.5	Numeric	-0.5	RtoL	0.5	Small	-0.5	06:15:24	-0.75	expected	1517	7.32448997934853	FALSE
s01	2	1	16	25	34	right	mid	left	mid	Choose a square with about 30 dots	Vague	0.5	Numeric	-0.5	LtoR	-0.5	Large	0.5	16:25:34	-0.25	borderline	1920	7.56008046502183	TRUE
s01	3	4	26	35	44	left	mid	right	left	Choose the square with the fewest dots	Crisp	-0.5	Verbal	0.5	LtoR	-0.5	Small	-0.5	26:35:44	0.25	expected	2346	7.76046702921342	FALSE
s01	4	1	54	45	36	left	mid	right	mid	Choose a square with about 50 dots	Vague	0.5	Numeric	-0.5	RtoL	0.5	Large	0.5	36:45:54	0.75	borderline	1773	7.48042830607421	TRUE
s01	5	1	24	15	6	right	mid	left	right	Choose a square with about 10 dots	Vague	0.5	Numeric	-0.5	RtoL	0.5	Small	-0.5	06:15:24	-0.75	expected	2556	7.84619881549743	FALSE
s01	6	3	16	25	34	right	mid	left	right	Choose a square with many dots	Vague	0.5	Verbal	0.5	LtoR	-0.5	Large	0.5	16:25:34	-0.25	expected	2043	7.62217459481762	FALSE
s01	7	3	44	35	26	right	mid	left	right	Choose a square with few dots	Vague	0.5	Verbal	0.5	RtoL	0.5	Small	-0.5	26:35:44	0.25	expected	2384	7.77653502818524	FALSE
s01	8	4	54	45	36	right	mid	left	right	Choose the square with the fewest dots	Crisp	-0.5	Verbal	0.5	RtoL	0.5	Small	-0.5	36:45:54	0.75	expected	3078	8.03203531439882	FALSE
s01	9	4	6	15	24	right	mid	left	right	Choose the square with the most dots	Crisp	-0.5	Verbal	0.5	LtoR	-0.5	Large	0.5	06:15:24	-0.75	expected	1760	7.4730690880322	FALSE
s01	10	2	34	25	16	left	mid	right	mid	Choose the square with 34 dots	Crisp	-0.5	Numeric	-0.5	RtoL	0.5	Large	0.5	16:25:34	-0.25	borderline	2218	7.70436116791031	TRUE
s01	11	1	44	35	26	right	mid	left	right	Choose a square with about 30 dots	Vague	0.5	Numeric	-0.5	RtoL	0.5	Small	-0.5	26:35:44	0.25	expected	7986	8.98544528762317	FALSE
s01	12	3	54	45	36	left	mid	right	left	Choose a square with many dots	Vague	0.5	Verbal	0.5	RtoL	0.5	Large	0.5	36:45:54	0.75	expected	1262	7.14045304310116	FALSE
s01	13	1	6	15	24	right	mid	left	mid	Choose a square with about 20 dots	Vague	0.5	Numeric	-0.5	LtoR	-0.5	Large	0.5	06:15:24	-0.75	borderline	1390	7.23705902612474	TRUE
s01	14	4	34	25	16	right	mid	left	right	Choose the square with the fewest dots	Crisp	-0.5	Verbal	0.5	RtoL	0.5	Small	-0.5	16:25:34	-0.25	expected	2067	7.63385355968177	FALSE
s01	15	2	26	35	44	right	mid	left	right	Choose the square with 44 dots	Crisp	-0.5	Numeric	-0.5	LtoR	-0.5	Large	0.5	26:35:44	0.25	expected	3582	8.18367658262066	FALSE
s01	16	2	36	45	54	right	mid	left	mid	Choose the square with 54 dots	Crisp	-0.5	Numeric	-0.5	LtoR	-0.5	Large	0.5	36:45:54	0.75	borderline	1982	7.59186171488993	TRUE
s01	17	3	6	15	24	left	mid	right	left	Choose a square with few dots	Vague	0.5	Verbal	0.5	LtoR	-0.5	Small	-0.5	06:15:24	-0.75	expected	1036	6.94312242281943	FALSE
s01	18	3	34	25	16	right	mid	left	right	Choose a square with few dots	Vague	0.5	Verbal	0.5	RtoL	0.5	Small	-0.5	16:25:34	-0.25	expected	1357	7.21303165983487	FALSE
s01	19	1	26	35	44	left	mid	right	mid	Choose a square with about 30 dots	Vague	0.5	Numeric	-0.5	LtoR	-0.5	Small	-0.5	26:35:44	0.25	borderline	2121	7.65964295456468	TRUE
s01	20	1	54	45	36	right	mid	left	mid	Choose a square with about 40 dots	Vague	0.5	Numeric	-0.5	RtoL	0.5	Small	-0.5	36:45:54	0.75	borderline	2104	7.6515955738576	TRUE
s01	21	4	24	15	6	right	mid	left	right	Choose the square with the fewest dots	Crisp	-0.5	Verbal	0.5	RtoL	0.5	Small	-0.5	06:15:24	-0.75	expected	782	6.66185474054531	FALSE
s01	22	1	16	25	34	left	mid	right	mid	Choose a square with about 20 dots	Vague	0.5	Numeric	-0.5	LtoR	-0.5	Small	-0.5	16:25:34	-0.25	borderline	1743	7.46336304552002	TRUE
s01	23	4	26	35	44	right	mid	left	right	Choose the square with the most dots	Crisp	-0.5	Verbal	0.5	LtoR	-0.5	Large	0.5	26:35:44	0.25	expected	997	6.90475076996184	FALSE
s01	24	3	36	45	54	left	mid	right	left	Choose a square with few dots	Vague	0.5	Verbal	0.5	LtoR	-0.5	Small	-0.5	36:45:54	0.75	expected	2274	7.72929567431048	FALSE
s01	25	2	6	15	24	left	mid	right	left	Choose the square with 6 dots	Crisp	-0.5	Numeric	-0.5	LtoR	-0.5	Small	-0.5	06:15:24	-0.75	expected	830	6.72142570079064	FALSE
s01	26	1	34	25	16	right	mid	left	mid	Choose a square with about 20 dots	Vague	0.5	Numeric	-0.5	RtoL	0.5	Small	-0.5	16:25:34	-0.25	borderline	1799	7.49498623395053	TRUE
s01	27	4	44	35	26	left	mid	right	left	Choose the square with the most dots	Crisp	-0.5	Verbal	0.5	RtoL	0.5	Large	0.5	26:35:44	0.25	expected	2057	7.62900388965296	FALSE
s01	28	2	36	45	54	left	mid	right	left	Choose the square with 36 dots	Crisp	-0.5	Numeric	-0.5	LtoR	-0.5	Small	-0.5	36:45:54	0.75	expected	1350	7.20785987143248	FALSE
s01	29	2	6	15	24	right	mid	left	right	Choose the square with 24 dots	Crisp	-0.5	Numeric	-0.5	LtoR	-0.5	Large	0.5	06:15:24	-0.75	expected	3042	8.02027047281924	FALSE
s01	30	4	16	25	34	right	mid	left	right	Choose the square with the most dots	Crisp	-0.5	Verbal	0.5	LtoR	-0.5	Large	0.5	16:25:34	-0.25	expected	1240	7.12286665859908	FALSE
s01	31	2	26	35	44	left	mid	right	mid	Choose the square with 26 dots	Crisp	-0.5	Numeric	-0.5	LtoR	-0.5	Small	-0.5	26:35:44	0.25	borderline	2356	7.76472054477148	TRUE
s01	32	3	54	45	36	right	mid	left	right	Choose a square with few dots	Vague	0.5	Verbal	0.5	RtoL	0.5	Small	-0.5	36:45:54	0.75	expected	3740	8.22684089040858	FALSE
s01	33	2	24	15	6	left	mid	right	left	Choose the square with 24 dots	Crisp	-0.5	Numeric	-0.5	RtoL	0.5	Large	0.5	06:15:24	-0.75	expected	1689	7.4318919168078	FALSE
s01	34	2	16	25	34	right	mid	left	right	Choose the square with 34 dots	Crisp	-0.5	Numeric	-0.5	LtoR	-0.5	Large	0.5	16:25:34	-0.25	expected	4676	8.45019832259196	FALSE
s01	35	2	44	35	26	left	mid	right	mid	Choose the square with 44 dots	Crisp	-0.5	Numeric	-0.5	RtoL	0.5	Large	0.5	26:35:44	0.25	borderline	2900	7.97246601597457	TRUE
s01	36	3	36	45	54	right	mid	left	right	Choose a square with many dots	Vague	0.5	Verbal	0.5	LtoR	-0.5	Large	0.5	36:45:54	0.75	expected	844	6.73815249459596	FALSE
s01	37	3	24	15	6	right	mid	left	left	Choose a square with few dots	Vague	0.5	Verbal	0.5	RtoL	0.5	Small	-0.5	06:15:24	-0.75	extreme	1007	6.91473089271856	FALSE
s01	38	4	16	25	34	left	mid	right	left	Choose the square with the fewest dots	Crisp	-0.5	Verbal	0.5	LtoR	-0.5	Small	-0.5	16:25:34	-0.25	expected	1085	6.98933526597456	FALSE
s01	39	1	44	35	26	left	mid	right	left	Choose a square with about 40 dots	Vague	0.5	Numeric	-0.5	RtoL	0.5	Large	0.5	26:35:44	0.25	expected	2229	7.70930833338587	FALSE
s01	40	4	54	45	36	left	mid	right	left	Choose the square with the most dots	Crisp	-0.5	Verbal	0.5	RtoL	0.5	Large	0.5	36:45:54	0.75	expected	2299	7.74022952476318	FALSE
s01	41	1	6	15	24	left	mid	right	mid	Choose a square with about 10 dots	Vague	0.5	Numeric	-0.5	LtoR	-0.5	Small	-0.5	06:15:24	-0.75	borderline	2873	7.96311205897929	TRUE
s01	42	3	16	25	34	left	mid	right	left	Choose a square with few dots	Vague	0.5	Verbal	0.5	LtoR	-0.5	Small	-0.5	16:25:34	-0.25	expected	2683	7.89469085042562	FALSE
s01	43	3	26	35	44	left	mid	right	left	Choose a square with few dots	Vague	0.5	Verbal	0.5	LtoR	-0.5	Small	-0.5	26:35:44	0.25	expected	1323	7.18765716411496	FALSE
s01	44	1	36	45	54	right	mid	left	right	Choose a square with about 50 dots	Vague	0.5	Numeric	-0.5	LtoR	-0.5	Large	0.5	36:45:54	0.75	expected	2298	7.7397944584087	FALSE
s01	45	1	24	15	6	left	mid	right	left	Choose a square with about 20 dots	Vague	0.5	Numeric	-0.5	RtoL	0.5	Large	0.5	06:15:24	-0.75	expected	2259	7.722677516468	FALSE
s01	46	1	34	25	16	left	mid	right	left	Choose a square with about 30 dots	Vague	0.5	Numeric	-0.5	RtoL	0.5	Large	0.5	16:25:34	-0.25	expected	1944	7.57250298502038	FALSE
s01	47	4	44	35	26	right	mid	left	right	Choose the square with the fewest dots	Crisp	-0.5	Verbal	0.5	RtoL	0.5	Small	-0.5	26:35:44	0.25	expected	1916	7.55799495853081	FALSE
s01	48	2	54	45	36	right	mid	left	mid	Choose the square with 36 dots	Crisp	-0.5	Numeric	-0.5	RtoL	0.5	Small	-0.5	36:45:54	0.75	borderline	3192	8.0684029585697	TRUE
s01	49	4	6	15	24	left	mid	right	left	Choose the square with the fewest dots	Crisp	-0.5	Verbal	0.5	LtoR	-0.5	Small	-0.5	06:15:24	-0.75	expected	945	6.85118492749374	FALSE
s01	50	4	34	25	16	left	mid	right	left	Choose the square with the most dots	Crisp	-0.5	Verbal	0.5	RtoL	0.5	Large	0.5	16:25:34	-0.25	expected	1315	7.18159194461187	FALSE
s01	51	3	26	35	44	right	mid	left	right	Choose a square with many dots	Vague	0.5	Verbal	0.5	LtoR	-0.5	Large	0.5	26:35:44	0.25	expected	3253	8.08733292647335	FALSE
s01	52	1	36	45	54	left	mid	right	right	Choose a square with about 40 dots	Vague	0.5	Numeric	-0.5	LtoR	-0.5	Small	-0.5	36:45:54	0.75	extreme	3155	8.05674377497531	FALSE
s01	53	3	6	15	24	right	mid	left	right	Choose a square with many dots	Vague	0.5	Verbal	0.5	LtoR	-0.5	Large	0.5	06:15:24	-0.75	expected	704	6.55677835615804	FALSE
s01	54	2	34	25	16	right	mid	left	mid	Choose the square with 16 dots	Crisp	-0.5	Numeric	-0.5	RtoL	0.5	Small	-0.5	16:25:34	-0.25	borderline	1942	7.57147364885127	TRUE
s01	55	2	44	35	26	right	mid	left	mid	Choose the square with 26 dots	Crisp	-0.5	Numeric	-0.5	RtoL	0.5	Small	-0.5	26:35:44	0.25	borderline	3566	8.17919979842309	TRUE
s01	56	2	54	45	36	left	mid	right	left	Choose the square with 54 dots	Crisp	-0.5	Numeric	-0.5	RtoL	0.5	Large	0.5	36:45:54	0.75	expected	1754	7.46965417293213	FALSE
s01	57	4	24	15	6	left	mid	right	left	Choose the square with the most dots	Crisp	-0.5	Verbal	0.5	RtoL	0.5	Large	0.5	06:15:24	-0.75	expected	933	6.83840520084734	FALSE
s01	58	2	16	25	34	left	mid	right	left	Choose the square with 16 dots	Crisp	-0.5	Numeric	-0.5	LtoR	-0.5	Small	-0.5	16:25:34	-0.25	expected	8155	9.00638651505511	FALSE
s01	59	3	44	35	26	left	mid	right	left	Choose a square with many dots	Vague	0.5	Verbal	0.5	RtoL	0.5	Large	0.5	26:35:44	0.25	expected	2022	7.61184239958042	FALSE
s01	60	4	36	45	54	right	mid	left	right	Choose the square with the most dots	Crisp	-0.5	Verbal	0.5	LtoR	-0.5	Large	0.5	36:45:54	0.75	expected	1029	6.93634273583405	FALSE
s01	61	3	24	15	6	left	mid	right	left	Choose a square with many dots	Vague	0.5	Verbal	0.5	RtoL	0.5	Large	0.5	06:15:24	-0.75	expected	1046	6.95272864462487	FALSE
s01	62	3	34	25	16	left	mid	right	left	Choose a square with many dots	Vague	0.5	Verbal	0.5	RtoL	0.5	Large	0.5	16:25:34	-0.25	expected	1203	7.09257371597468	FALSE
s01	63	1	26	35	44	right	mid	left	right	Choose a square with about 40 dots	Vague	0.5	Numeric	-0.5	LtoR	-0.5	Large	0.5	26:35:44	0.25	expected	1313	7.1800698743028	FALSE
s01	64	4	36	45	54	left	mid	right	left	Choose the square with the fewest dots	Crisp	-0.5	Verbal	0.5	LtoR	-0.5	Small	-0.5	36:45:54	0.75	expected	1019	6.92657703322272	FALSE
s01	65	1	24	15	6	right	mid	left	mid	Choose a square with about 10 dots	Vague	0.5	Numeric	-0.5	RtoL	0.5	Small	-0.5	06:15:24	-0.75	borderline	1452	7.28069719538474	TRUE
s01	66	1	34	25	16	left	mid	right	left	Choose a square with about 30 dots	Vague	0.5	Numeric	-0.5	RtoL	0.5	Large	0.5	16:25:34	-0.25	expected	1544	7.34213173058472	FALSE
s01	67	3	26	35	44	right	mid	left	right	Choose a square with many dots	Vague	0.5	Verbal	0.5	LtoR	-0.5	Large	0.5	26:35:44	0.25	expected	874	6.77308037565554	FALSE
s01	68	1	54	45	36	right	mid	left	left	Choose a square with about 40 dots	Vague	0.5	Numeric	-0.5	RtoL	0.5	Small	-0.5	36:45:54	0.75	extreme	3235	8.081784206935	FALSE
s01	69	1	6	15	24	right	mid	left	mid	Choose a square with about 20 dots	Vague	0.5	Numeric	-0.5	LtoR	-0.5	Large	0.5	06:15:24	-0.75	borderline	2743	7.9168074909376	TRUE
s01	70	2	34	25	16	left	mid	right	left	Choose the square with 34 dots	Crisp	-0.5	Numeric	-0.5	RtoL	0.5	Large	0.5	16:25:34	-0.25	expected	1494	7.30921236569276	FALSE
s01	71	4	26	35	44	right	mid	left	right	Choose the square with the most dots	Crisp	-0.5	Verbal	0.5	LtoR	-0.5	Large	0.5	26:35:44	0.25	expected	834	6.72623340235875	FALSE
s01	72	3	36	45	54	right	mid	left	right	Choose a square with many dots	Vague	0.5	Verbal	0.5	LtoR	-0.5	Large	0.5	36:45:54	0.75	expected	1349	7.20711885620776	FALSE
s01	73	3	24	15	6	right	mid	left	left	Choose a square with few dots	Vague	0.5	Verbal	0.5	RtoL	0.5	Small	-0.5	06:15:24	-0.75	extreme	717	6.57507584059962	FALSE
s01	74	3	16	25	34	right	mid	left	right	Choose a square with many dots	Vague	0.5	Verbal	0.5	LtoR	-0.5	Large	0.5	16:25:34	-0.25	expected	1648	7.40731771046942	FALSE
s01	75	1	44	35	26	right	mid	left	left	Choose a square with about 30 dots	Vague	0.5	Numeric	-0.5	RtoL	0.5	Small	-0.5	26:35:44	0.25	extreme	940	6.84587987526405	FALSE
s01	76	2	36	45	54	left	mid	right	right	Choose the square with 36 dots	Crisp	-0.5	Numeric	-0.5	LtoR	-0.5	Small	-0.5	36:45:54	0.75	extreme	2787	7.93272102748195	FALSE
s01	77	4	24	15	6	left	mid	right	left	Choose the square with the most dots	Crisp	-0.5	Verbal	0.5	RtoL	0.5	Large	0.5	06:15:24	-0.75	expected	880	6.77992190747225	FALSE
s01	78	2	34	25	16	right	mid	left	mid	Choose the square with 16 dots	Crisp	-0.5	Numeric	-0.5	RtoL	0.5	Small	-0.5	16:25:34	-0.25	borderline	1795	7.49276030092238	TRUE
s01	79	2	26	35	44	left	mid	right	mid	Choose the square with 26 dots	Crisp	-0.5	Numeric	-0.5	LtoR	-0.5	Small	-0.5	26:35:44	0.25	borderline	1844	7.51969240411654	TRUE
s01	80	3	36	45	54	left	mid	right	left	Choose a square with few dots	Vague	0.5	Verbal	0.5	LtoR	-0.5	Small	-0.5	36:45:54	0.75	expected	1548	7.34471905414967	FALSE
s01	81	2	6	15	24	right	mid	left	right	Choose the square with 24 dots	Crisp	-0.5	Numeric	-0.5	LtoR	-0.5	Large	0.5	06:15:24	-0.75	expected	1902	7.55066124310534	FALSE
s01	82	4	16	25	34	left	mid	right	left	Choose the square with the fewest dots	Crisp	-0.5	Verbal	0.5	LtoR	-0.5	Small	-0.5	16:25:34	-0.25	expected	919	6.82328612235569	FALSE
s01	83	4	44	35	26	left	mid	right	left	Choose the square with the most dots	Crisp	-0.5	Verbal	0.5	RtoL	0.5	Large	0.5	26:35:44	0.25	expected	798	6.68210859744981	FALSE
s01	84	3	54	45	36	right	mid	left	right	Choose a square with few dots	Vague	0.5	Verbal	0.5	RtoL	0.5	Small	-0.5	36:45:54	0.75	expected	2193	7.69302574841789	FALSE
s01	85	2	24	15	6	right	mid	left	right	Choose the square with 6 dots	Crisp	-0.5	Numeric	-0.5	RtoL	0.5	Small	-0.5	06:15:24	-0.75	expected	1293	7.16472037877186	FALSE
s01	86	3	34	25	16	right	mid	left	right	Choose a square with few dots	Vague	0.5	Verbal	0.5	RtoL	0.5	Small	-0.5	16:25:34	-0.25	expected	1420	7.25841215059531	FALSE
s01	87	1	26	35	44	left	mid	right	mid	Choose a square with about 30 dots	Vague	0.5	Numeric	-0.5	LtoR	-0.5	Small	-0.5	26:35:44	0.25	borderline	2219	7.70481192293259	TRUE
s01	88	2	54	45	36	left	mid	right	left	Choose the square with 54 dots	Crisp	-0.5	Numeric	-0.5	RtoL	0.5	Large	0.5	36:45:54	0.75	expected	913	6.81673588059497	FALSE
s01	89	4	6	15	24	right	mid	left	right	Choose the square with the most dots	Crisp	-0.5	Verbal	0.5	LtoR	-0.5	Large	0.5	06:15:24	-0.75	expected	825	6.71538338633468	FALSE
s01	90	3	34	25	16	left	mid	right	left	Choose a square with many dots	Vague	0.5	Verbal	0.5	RtoL	0.5	Large	0.5	16:25:34	-0.25	expected	2325	7.75147531802146	FALSE
s01	91	3	44	35	26	left	mid	right	left	Choose a square with many dots	Vague	0.5	Verbal	0.5	RtoL	0.5	Large	0.5	26:35:44	0.25	expected	1486	7.3038432252777	FALSE
s01	92	4	54	45	36	left	mid	right	left	Choose the square with the most dots	Crisp	-0.5	Verbal	0.5	RtoL	0.5	Large	0.5	36:45:54	0.75	expected	1195	7.08590146436561	FALSE
s01	93	3	24	15	6	left	mid	right	left	Choose a square with many dots	Vague	0.5	Verbal	0.5	RtoL	0.5	Large	0.5	06:15:24	-0.75	expected	1483	7.30182234213793	FALSE
s01	94	1	16	25	34	left	mid	right	mid	Choose a square with about 20 dots	Vague	0.5	Numeric	-0.5	LtoR	-0.5	Small	-0.5	16:25:34	-0.25	borderline	2112	7.65539064482615	TRUE
s01	95	2	44	35	26	right	mid	left	mid	Choose the square with 26 dots	Crisp	-0.5	Numeric	-0.5	RtoL	0.5	Small	-0.5	26:35:44	0.25	borderline	3120	8.04558828080353	TRUE
s01	96	2	54	45	36	right	mid	left	left	Choose the square with 36 dots	Crisp	-0.5	Numeric	-0.5	RtoL	0.5	Small	-0.5	36:45:54	0.75	extreme	4594	8.43250638324904	FALSE
s01	97	3	6	15	24	right	mid	left	right	Choose a square with many dots	Vague	0.5	Verbal	0.5	LtoR	-0.5	Large	0.5	06:15:24	-0.75	expected	717	6.57507584059962	FALSE
s01	98	3	16	25	34	left	mid	right	left	Choose a square with few dots	Vague	0.5	Verbal	0.5	LtoR	-0.5	Small	-0.5	16:25:34	-0.25	expected	888	6.78897174299217	FALSE
s01	99	1	44	35	26	left	mid	right	left	Choose a square with about 40 dots	Vague	0.5	Numeric	-0.5	RtoL	0.5	Large	0.5	26:35:44	0.25	expected	1204	7.09340462586877	FALSE
s01	100	4	36	45	54	left	mid	right	left	Choose the square with the fewest dots	Crisp	-0.5	Verbal	0.5	LtoR	-0.5	Small	-0.5	36:45:54	0.75	expected	3062	8.02682357621763	FALSE
s01	101	4	24	15	6	right	mid	left	right	Choose the square with the fewest dots	Crisp	-0.5	Verbal	0.5	RtoL	0.5	Small	-0.5	06:15:24	-0.75	expected	1091	6.99484998583307	FALSE
s01	102	1	16	25	34	right	mid	left	right	Choose a square with about 30 dots	Vague	0.5	Numeric	-0.5	LtoR	-0.5	Large	0.5	16:25:34	-0.25	expected	1631	7.39694860262101	FALSE
s01	103	4	26	35	44	left	mid	right	left	Choose the square with the fewest dots	Crisp	-0.5	Verbal	0.5	LtoR	-0.5	Small	-0.5	26:35:44	0.25	expected	1593	7.37337430991005	FALSE
s01	104	4	54	45	36	right	mid	left	right	Choose the square with the fewest dots	Crisp	-0.5	Verbal	0.5	RtoL	0.5	Small	-0.5	36:45:54	0.75	expected	1233	7.11720550316434	FALSE
s01	105	1	6	15	24	left	mid	right	mid	Choose a square with about 10 dots	Vague	0.5	Numeric	-0.5	LtoR	-0.5	Small	-0.5	06:15:24	-0.75	borderline	1081	6.98564181763921	TRUE
s01	106	4	34	25	16	left	mid	right	left	Choose the square with the most dots	Crisp	-0.5	Verbal	0.5	RtoL	0.5	Large	0.5	16:25:34	-0.25	expected	1687	7.43070708254597	FALSE
s01	107	3	26	35	44	left	mid	right	left	Choose a square with few dots	Vague	0.5	Verbal	0.5	LtoR	-0.5	Small	-0.5	26:35:44	0.25	expected	1900	7.54960916515453	FALSE
s01	108	1	36	45	54	right	mid	left	right	Choose a square with about 50 dots	Vague	0.5	Numeric	-0.5	LtoR	-0.5	Large	0.5	36:45:54	0.75	expected	1383	7.23201033166476	FALSE
s01	109	3	6	15	24	left	mid	right	left	Choose a square with few dots	Vague	0.5	Verbal	0.5	LtoR	-0.5	Small	-0.5	06:15:24	-0.75	expected	1557	7.350516171834	FALSE
s01	110	2	16	25	34	right	mid	left	right	Choose the square with 34 dots	Crisp	-0.5	Numeric	-0.5	LtoR	-0.5	Large	0.5	16:25:34	-0.25	expected	1104	7.00669522683704	FALSE
s01	111	1	26	35	44	right	mid	left	right	Choose a square with about 40 dots	Vague	0.5	Numeric	-0.5	LtoR	-0.5	Large	0.5	26:35:44	0.25	expected	1116	7.01750614294126	FALSE
s01	112	1	36	45	54	left	mid	right	right	Choose a square with about 40 dots	Vague	0.5	Numeric	-0.5	LtoR	-0.5	Small	-0.5	36:45:54	0.75	extreme	1254	7.13409372119287	FALSE
s01	113	2	6	15	24	left	mid	right	left	Choose the square with 6 dots	Crisp	-0.5	Numeric	-0.5	LtoR	-0.5	Small	-0.5	06:15:24	-0.75	expected	1029	6.93634273583405	FALSE
s01	114	4	34	25	16	right	mid	left	right	Choose the square with the fewest dots	Crisp	-0.5	Verbal	0.5	RtoL	0.5	Small	-0.5	16:25:34	-0.25	expected	1459	7.28550654852279	FALSE
s01	115	3	44	35	26	right	mid	left	right	Choose a square with few dots	Vague	0.5	Verbal	0.5	RtoL	0.5	Small	-0.5	26:35:44	0.25	expected	1491	7.30720231476474	FALSE
s01	116	4	36	45	54	right	mid	left	right	Choose the square with the most dots	Crisp	-0.5	Verbal	0.5	LtoR	-0.5	Large	0.5	36:45:54	0.75	expected	1820	7.50659178007084	FALSE
s01	117	1	24	15	6	left	mid	right	left	Choose a square with about 20 dots	Vague	0.5	Numeric	-0.5	RtoL	0.5	Large	0.5	06:15:24	-0.75	expected	952	6.85856503479136	FALSE
s01	118	2	16	25	34	left	mid	right	mid	Choose the square with 16 dots	Crisp	-0.5	Numeric	-0.5	LtoR	-0.5	Small	-0.5	16:25:34	-0.25	borderline	1303	7.17242457712485	TRUE
s01	119	2	44	35	26	left	mid	right	left	Choose the square with 44 dots	Crisp	-0.5	Numeric	-0.5	RtoL	0.5	Large	0.5	26:35:44	0.25	expected	1659	7.41397029019044	FALSE
s01	120	1	54	45	36	left	mid	right	left	Choose a square with about 50 dots	Vague	0.5	Numeric	-0.5	RtoL	0.5	Large	0.5	36:45:54	0.75	expected	1027	6.93439720992856	FALSE
s01	121	2	24	15	6	left	mid	right	left	Choose the square with 24 dots	Crisp	-0.5	Numeric	-0.5	RtoL	0.5	Large	0.5	06:15:24	-0.75	expected	1570	7.35883089834235	FALSE
s01	122	1	34	25	16	right	mid	left	mid	Choose a square with about 20 dots	Vague	0.5	Numeric	-0.5	RtoL	0.5	Small	-0.5	16:25:34	-0.25	borderline	1100	7.00306545878646	TRUE
s01	123	4	44	35	26	right	mid	left	right	Choose the square with the fewest dots	Crisp	-0.5	Verbal	0.5	RtoL	0.5	Small	-0.5	26:35:44	0.25	expected	1433	7.26752542782817	FALSE
s01	124	3	54	45	36	left	mid	right	left	Choose a square with many dots	Vague	0.5	Verbal	0.5	RtoL	0.5	Large	0.5	36:45:54	0.75	expected	1005	6.91274282049318	FALSE
s01	125	4	6	15	24	left	mid	right	left	Choose the square with the fewest dots	Crisp	-0.5	Verbal	0.5	LtoR	-0.5	Small	-0.5	06:15:24	-0.75	expected	1121	7.02197642307216	FALSE
s01	126	4	16	25	34	right	mid	left	right	Choose the square with the most dots	Crisp	-0.5	Verbal	0.5	LtoR	-0.5	Large	0.5	16:25:34	-0.25	expected	1564	7.35500192110526	FALSE
s01	127	2	26	35	44	right	mid	left	right	Choose the square with 44 dots	Crisp	-0.5	Numeric	-0.5	LtoR	-0.5	Large	0.5	26:35:44	0.25	expected	1016	6.92362862813843	FALSE
s01	128	2	36	45	54	right	mid	left	right	Choose the square with 54 dots	Crisp	-0.5	Numeric	-0.5	LtoR	-0.5	Large	0.5	36:45:54	0.75	expected	2456	7.80628928926703	FALSE
s01	129	1	24	15	6	right	mid	left	mid	Choose a square with about 10 dots	Vague	0.5	Numeric	-0.5	RtoL	0.5	Small	-0.5	06:15:24	-0.75	borderline	1254	7.13409372119287	TRUE
s01	130	1	34	25	16	left	mid	right	left	Choose a square with about 30 dots	Vague	0.5	Numeric	-0.5	RtoL	0.5	Large	0.5	16:25:34	-0.25	expected	1799	7.49498623395053	FALSE
s01	131	4	44	35	26	left	mid	right	left	Choose the square with the most dots	Crisp	-0.5	Verbal	0.5	RtoL	0.5	Large	0.5	26:35:44	0.25	expected	1286	7.15929190479756	FALSE
s01	132	4	54	45	36	right	mid	left	mid	Choose the square with the fewest dots	Crisp	-0.5	Verbal	0.5	RtoL	0.5	Small	-0.5	36:45:54	0.75	borderline	2192	7.69256964806791	TRUE
s01	133	4	24	15	6	right	mid	left	right	Choose the square with the fewest dots	Crisp	-0.5	Verbal	0.5	RtoL	0.5	Small	-0.5	06:15:24	-0.75	expected	1095	6.9985096422506	FALSE
s01	134	4	16	25	34	right	mid	left	right	Choose the square with the most dots	Crisp	-0.5	Verbal	0.5	LtoR	-0.5	Large	0.5	16:25:34	-0.25	expected	764	6.63856778916652	FALSE
s01	135	1	44	35	26	left	mid	right	left	Choose a square with about 40 dots	Vague	0.5	Numeric	-0.5	RtoL	0.5	Large	0.5	26:35:44	0.25	expected	1412	7.25276241805319	FALSE
s01	136	2	54	45	36	right	mid	left	left	Choose the square with 36 dots	Crisp	-0.5	Numeric	-0.5	RtoL	0.5	Small	-0.5	36:45:54	0.75	extreme	2820	7.94449216393216	FALSE
s01	137	1	6	15	24	right	mid	left	right	Choose a square with about 20 dots	Vague	0.5	Numeric	-0.5	LtoR	-0.5	Large	0.5	06:15:24	-0.75	expected	1617	7.38832785957711	FALSE
s01	138	3	34	25	16	left	mid	right	left	Choose a square with many dots	Vague	0.5	Verbal	0.5	RtoL	0.5	Large	0.5	16:25:34	-0.25	expected	2162	7.67878899819915	FALSE
s01	139	2	44	35	26	right	mid	left	left	Choose the square with 26 dots	Crisp	-0.5	Numeric	-0.5	RtoL	0.5	Small	-0.5	26:35:44	0.25	extreme	4054	8.30745932701195	FALSE
s01	140	1	54	45	36	left	mid	right	left	Choose a square with about 50 dots	Vague	0.5	Numeric	-0.5	RtoL	0.5	Large	0.5	36:45:54	0.75	expected	2135	7.66622192566273	FALSE
s01	141	3	6	15	24	right	mid	left	right	Choose a square with many dots	Vague	0.5	Verbal	0.5	LtoR	-0.5	Large	0.5	06:15:24	-0.75	expected	1307	7.17548971362422	FALSE
s01	142	4	34	25	16	right	mid	left	right	Choose the square with the fewest dots	Crisp	-0.5	Verbal	0.5	RtoL	0.5	Small	-0.5	16:25:34	-0.25	expected	1039	6.94601399109923	FALSE
s01	143	1	26	35	44	left	mid	right	right	Choose a square with about 30 dots	Vague	0.5	Numeric	-0.5	LtoR	-0.5	Small	-0.5	26:35:44	0.25	extreme	1460	7.28619171470238	FALSE
s01	144	3	36	45	54	left	mid	right	left	Choose a square with few dots	Vague	0.5	Verbal	0.5	LtoR	-0.5	Small	-0.5	36:45:54	0.75	expected	1633	7.39817409297047	FALSE
s01	145	3	6	15	24	left	mid	right	left	Choose a square with few dots	Vague	0.5	Verbal	0.5	LtoR	-0.5	Small	-0.5	06:15:24	-0.75	expected	1268	7.14519613499717	FALSE
s01	146	2	16	25	34	right	mid	left	right	Choose the square with 34 dots	Crisp	-0.5	Numeric	-0.5	LtoR	-0.5	Large	0.5	16:25:34	-0.25	expected	1688	7.4312996751559	FALSE
s01	147	2	44	35	26	left	mid	right	left	Choose the square with 44 dots	Crisp	-0.5	Numeric	-0.5	RtoL	0.5	Large	0.5	26:35:44	0.25	expected	1861	7.52886925664225	FALSE
s01	148	4	36	45	54	right	mid	left	right	Choose the square with the most dots	Crisp	-0.5	Verbal	0.5	LtoR	-0.5	Large	0.5	36:45:54	0.75	expected	1293	7.16472037877186	FALSE
s01	149	2	24	15	6	right	mid	left	right	Choose the square with 6 dots	Crisp	-0.5	Numeric	-0.5	RtoL	0.5	Small	-0.5	06:15:24	-0.75	expected	1200	7.09007683577609	FALSE
s01	150	2	34	25	16	left	mid	right	left	Choose the square with 34 dots	Crisp	-0.5	Numeric	-0.5	RtoL	0.5	Large	0.5	16:25:34	-0.25	expected	1262	7.14045304310116	FALSE
s01	151	2	26	35	44	left	mid	right	mid	Choose the square with 26 dots	Crisp	-0.5	Numeric	-0.5	LtoR	-0.5	Small	-0.5	26:35:44	0.25	borderline	2426	7.793999089504	TRUE
s01	152	3	54	45	36	left	mid	right	left	Choose a square with many dots	Vague	0.5	Verbal	0.5	RtoL	0.5	Large	0.5	36:45:54	0.75	expected	2804	7.93880224815448	FALSE
s01	153	3	24	15	6	right	mid	left	right	Choose a square with few dots	Vague	0.5	Verbal	0.5	RtoL	0.5	Small	-0.5	06:15:24	-0.75	expected	1153	7.05012252026906	FALSE
s01	154	4	34	25	16	left	mid	right	left	Choose the square with the most dots	Crisp	-0.5	Verbal	0.5	RtoL	0.5	Large	0.5	16:25:34	-0.25	expected	1108	7.01031186730723	FALSE
s01	155	3	44	35	26	right	mid	left	right	Choose a square with few dots	Vague	0.5	Verbal	0.5	RtoL	0.5	Small	-0.5	26:35:44	0.25	expected	1362	7.21670948670946	FALSE
s01	156	3	36	45	54	right	mid	left	right	Choose a square with many dots	Vague	0.5	Verbal	0.5	LtoR	-0.5	Large	0.5	36:45:54	0.75	expected	2119	7.6586995582683	FALSE
s01	157	2	6	15	24	right	mid	left	right	Choose the square with 24 dots	Crisp	-0.5	Numeric	-0.5	LtoR	-0.5	Large	0.5	06:15:24	-0.75	expected	1442	7.27378631784489	FALSE
s01	158	3	16	25	34	left	mid	right	left	Choose a square with few dots	Vague	0.5	Verbal	0.5	LtoR	-0.5	Small	-0.5	16:25:34	-0.25	expected	1065	6.97073007814353	FALSE
s01	159	3	26	35	44	left	mid	right	left	Choose a square with few dots	Vague	0.5	Verbal	0.5	LtoR	-0.5	Small	-0.5	26:35:44	0.25	expected	1112	7.01391547481053	FALSE
s01	160	1	36	45	54	right	mid	left	right	Choose a square with about 50 dots	Vague	0.5	Numeric	-0.5	LtoR	-0.5	Large	0.5	36:45:54	0.75	expected	1188	7.08002649992259	FALSE
s01	161	2	6	15	24	left	mid	right	left	Choose the square with 6 dots	Crisp	-0.5	Numeric	-0.5	LtoR	-0.5	Small	-0.5	06:15:24	-0.75	expected	734	6.59850902861452	FALSE
s01	162	4	16	25	34	left	mid	right	left	Choose the square with the fewest dots	Crisp	-0.5	Verbal	0.5	LtoR	-0.5	Small	-0.5	16:25:34	-0.25	expected	1400	7.24422751560335	FALSE
s01	163	3	26	35	44	right	mid	left	right	Choose a square with many dots	Vague	0.5	Verbal	0.5	LtoR	-0.5	Large	0.5	26:35:44	0.25	expected	1673	7.42237370098682	FALSE
s01	164	2	36	45	54	right	mid	left	right	Choose the square with 54 dots	Crisp	-0.5	Numeric	-0.5	LtoR	-0.5	Large	0.5	36:45:54	0.75	expected	1631	7.39694860262101	FALSE
s01	165	3	24	15	6	left	mid	right	left	Choose a square with many dots	Vague	0.5	Verbal	0.5	RtoL	0.5	Large	0.5	06:15:24	-0.75	expected	1971	7.58629630715272	FALSE
s01	166	1	16	25	34	left	mid	right	mid	Choose a square with about 20 dots	Vague	0.5	Numeric	-0.5	LtoR	-0.5	Small	-0.5	16:25:34	-0.25	borderline	3524	8.16735198705607	TRUE
s01	167	2	26	35	44	right	mid	left	right	Choose the square with 44 dots	Crisp	-0.5	Numeric	-0.5	LtoR	-0.5	Large	0.5	26:35:44	0.25	expected	1128	7.028201432058	FALSE
s01	168	1	54	45	36	right	mid	left	left	Choose a square with about 40 dots	Vague	0.5	Numeric	-0.5	RtoL	0.5	Small	-0.5	36:45:54	0.75	extreme	1962	7.58171964012531	FALSE
s01	169	4	24	15	6	left	mid	right	left	Choose the square with the most dots	Crisp	-0.5	Verbal	0.5	RtoL	0.5	Large	0.5	06:15:24	-0.75	expected	1045	6.95177216439891	FALSE
s01	170	1	34	25	16	right	mid	left	mid	Choose a square with about 20 dots	Vague	0.5	Numeric	-0.5	RtoL	0.5	Small	-0.5	16:25:34	-0.25	borderline	2018	7.60986220091355	TRUE
s01	171	4	44	35	26	right	mid	left	right	Choose the square with the fewest dots	Crisp	-0.5	Verbal	0.5	RtoL	0.5	Small	-0.5	26:35:44	0.25	expected	1240	7.12286665859908	FALSE
s01	172	4	54	45	36	left	mid	right	left	Choose the square with the most dots	Crisp	-0.5	Verbal	0.5	RtoL	0.5	Large	0.5	36:45:54	0.75	expected	1282	7.15617663748062	FALSE
s01	173	1	24	15	6	left	mid	right	left	Choose a square with about 20 dots	Vague	0.5	Numeric	-0.5	RtoL	0.5	Large	0.5	06:15:24	-0.75	expected	1276	7.15148546390474	FALSE
s01	174	3	16	25	34	right	mid	left	right	Choose a square with many dots	Vague	0.5	Verbal	0.5	LtoR	-0.5	Large	0.5	16:25:34	-0.25	expected	1256	7.13568734702814	FALSE
s01	175	1	44	35	26	right	mid	left	left	Choose a square with about 30 dots	Vague	0.5	Numeric	-0.5	RtoL	0.5	Small	-0.5	26:35:44	0.25	extreme	1796	7.49331724886215	FALSE
s01	176	2	36	45	54	left	mid	right	right	Choose the square with 36 dots	Crisp	-0.5	Numeric	-0.5	LtoR	-0.5	Small	-0.5	36:45:54	0.75	extreme	1780	7.48436864328613	FALSE
s01	177	4	6	15	24	right	mid	left	right	Choose the square with the most dots	Crisp	-0.5	Verbal	0.5	LtoR	-0.5	Large	0.5	06:15:24	-0.75	expected	1565	7.35564110297425	FALSE
s01	178	1	16	25	34	right	mid	left	right	Choose a square with about 30 dots	Vague	0.5	Numeric	-0.5	LtoR	-0.5	Large	0.5	16:25:34	-0.25	expected	1470	7.29301767977278	FALSE
s01	179	4	26	35	44	right	mid	left	right	Choose the square with the most dots	Crisp	-0.5	Verbal	0.5	LtoR	-0.5	Large	0.5	26:35:44	0.25	expected	1841	7.51806418123308	FALSE
s01	180	4	36	45	54	left	mid	right	left	Choose the square with the fewest dots	Crisp	-0.5	Verbal	0.5	LtoR	-0.5	Small	-0.5	36:45:54	0.75	expected	2064	7.63240112660145	FALSE
s01	181	4	6	15	24	left	mid	right	left	Choose the square with the fewest dots	Crisp	-0.5	Verbal	0.5	LtoR	-0.5	Small	-0.5	06:15:24	-0.75	expected	866	6.76388490856244	FALSE
s01	182	2	16	25	34	left	mid	right	mid	Choose the square with 16 dots	Crisp	-0.5	Numeric	-0.5	LtoR	-0.5	Small	-0.5	16:25:34	-0.25	borderline	1229	7.11395610956603	TRUE
s01	183	3	44	35	26	left	mid	right	left	Choose a square with many dots	Vague	0.5	Verbal	0.5	RtoL	0.5	Large	0.5	26:35:44	0.25	expected	948	6.85435450225502	FALSE
s01	184	1	36	45	54	left	mid	right	right	Choose a square with about 40 dots	Vague	0.5	Numeric	-0.5	LtoR	-0.5	Small	-0.5	36:45:54	0.75	extreme	789	6.67076632084587	FALSE
s01	185	2	24	15	6	left	mid	right	left	Choose the square with 24 dots	Crisp	-0.5	Numeric	-0.5	RtoL	0.5	Large	0.5	06:15:24	-0.75	expected	1131	7.03085747611612	FALSE
s01	186	3	34	25	16	right	mid	left	right	Choose a square with few dots	Vague	0.5	Verbal	0.5	RtoL	0.5	Small	-0.5	16:25:34	-0.25	expected	1212	7.10002716662926	FALSE
s01	187	4	26	35	44	left	mid	right	left	Choose the square with the fewest dots	Crisp	-0.5	Verbal	0.5	LtoR	-0.5	Small	-0.5	26:35:44	0.25	expected	1228	7.11314210870709	FALSE
s01	188	2	54	45	36	left	mid	right	left	Choose the square with 54 dots	Crisp	-0.5	Numeric	-0.5	RtoL	0.5	Large	0.5	36:45:54	0.75	expected	1501	7.31388683163346	FALSE
s01	189	1	6	15	24	left	mid	right	mid	Choose a square with about 10 dots	Vague	0.5	Numeric	-0.5	LtoR	-0.5	Small	-0.5	06:15:24	-0.75	borderline	1285	7.15851399732932	TRUE
s01	190	2	34	25	16	right	mid	left	mid	Choose the square with 16 dots	Crisp	-0.5	Numeric	-0.5	RtoL	0.5	Small	-0.5	16:25:34	-0.25	borderline	1980	7.59085212368858	TRUE
s01	191	1	26	35	44	right	mid	left	right	Choose a square with about 40 dots	Vague	0.5	Numeric	-0.5	LtoR	-0.5	Large	0.5	26:35:44	0.25	expected	1671	7.42117752859539	FALSE
s01	192	3	54	45	36	right	mid	left	right	Choose a square with few dots	Vague	0.5	Verbal	0.5	RtoL	0.5	Small	-0.5	36:45:54	0.75	expected	2294	7.73805229768932	FALSE
s01	193	3	6	15	24	right	mid	left	right	Choose a square with many dots	Vague	0.5	Verbal	0.5	LtoR	-0.5	Large	0.5	06:15:24	-0.75	expected	943	6.84906628263346	FALSE
s01	194	2	16	25	34	left	mid	right	mid	Choose the square with 16 dots	Crisp	-0.5	Numeric	-0.5	LtoR	-0.5	Small	-0.5	16:25:34	-0.25	borderline	1466	7.2902928824466	TRUE
s01	195	2	26	35	44	right	mid	left	right	Choose the square with 44 dots	Crisp	-0.5	Numeric	-0.5	LtoR	-0.5	Large	0.5	26:35:44	0.25	expected	872	6.77078942390898	FALSE
s01	196	1	54	45	36	left	mid	right	left	Choose a square with about 50 dots	Vague	0.5	Numeric	-0.5	RtoL	0.5	Large	0.5	36:45:54	0.75	expected	761	6.63463335786169	FALSE
s01	197	4	6	15	24	right	mid	left	right	Choose the square with the most dots	Crisp	-0.5	Verbal	0.5	LtoR	-0.5	Large	0.5	06:15:24	-0.75	expected	615	6.42162226780652	FALSE
s01	198	3	16	25	34	left	mid	right	left	Choose a square with few dots	Vague	0.5	Verbal	0.5	LtoR	-0.5	Small	-0.5	16:25:34	-0.25	expected	805	6.69084227741856	FALSE
s01	199	4	26	35	44	left	mid	right	left	Choose the square with the fewest dots	Crisp	-0.5	Verbal	0.5	LtoR	-0.5	Small	-0.5	26:35:44	0.25	expected	1040	6.94697599213542	FALSE
s01	200	4	36	45	54	left	mid	right	left	Choose the square with the fewest dots	Crisp	-0.5	Verbal	0.5	LtoR	-0.5	Small	-0.5	36:45:54	0.75	expected	2051	7.62608275807238	FALSE
s01	201	4	24	15	6	right	mid	left	right	Choose the square with the fewest dots	Crisp	-0.5	Verbal	0.5	RtoL	0.5	Small	-0.5	06:15:24	-0.75	expected	1247	7.12849594568004	FALSE
s01	202	2	16	25	34	right	mid	left	right	Choose the square with 34 dots	Crisp	-0.5	Numeric	-0.5	LtoR	-0.5	Large	0.5	16:25:34	-0.25	expected	1943	7.57198844937744	FALSE
s01	203	3	44	35	26	right	mid	left	right	Choose a square with few dots	Vague	0.5	Verbal	0.5	RtoL	0.5	Small	-0.5	26:35:44	0.25	expected	979	6.88653164253051	FALSE
s01	204	2	54	45	36	right	mid	left	left	Choose the square with 36 dots	Crisp	-0.5	Numeric	-0.5	RtoL	0.5	Small	-0.5	36:45:54	0.75	extreme	2863	7.95962530509811	FALSE
s01	205	1	24	15	6	right	mid	left	mid	Choose a square with about 10 dots	Vague	0.5	Numeric	-0.5	RtoL	0.5	Small	-0.5	06:15:24	-0.75	borderline	1087	6.99117688712121	TRUE
s01	206	1	34	25	16	left	mid	right	left	Choose a square with about 30 dots	Vague	0.5	Numeric	-0.5	RtoL	0.5	Large	0.5	16:25:34	-0.25	expected	873	6.7719355558396	FALSE
s01	207	3	26	35	44	right	mid	left	right	Choose a square with many dots	Vague	0.5	Verbal	0.5	LtoR	-0.5	Large	0.5	26:35:44	0.25	expected	1047	6.95368421087054	FALSE
s01	208	2	36	45	54	right	mid	left	right	Choose the square with 54 dots	Crisp	-0.5	Numeric	-0.5	LtoR	-0.5	Large	0.5	36:45:54	0.75	expected	842	6.73578001424233	FALSE
s01	209	3	24	15	6	right	mid	left	right	Choose a square with few dots	Vague	0.5	Verbal	0.5	RtoL	0.5	Small	-0.5	06:15:24	-0.75	expected	821	6.71052310945243	FALSE
s01	210	3	34	25	16	left	mid	right	left	Choose a square with many dots	Vague	0.5	Verbal	0.5	RtoL	0.5	Large	0.5	16:25:34	-0.25	expected	1849	7.52240023138712	FALSE
s01	211	2	44	35	26	left	mid	right	left	Choose the square with 44 dots	Crisp	-0.5	Numeric	-0.5	RtoL	0.5	Large	0.5	26:35:44	0.25	expected	1229	7.11395610956603	FALSE
s01	212	3	36	45	54	right	mid	left	right	Choose a square with many dots	Vague	0.5	Verbal	0.5	LtoR	-0.5	Large	0.5	36:45:54	0.75	expected	1512	7.32118855673948	FALSE
s01	213	2	6	15	24	left	mid	right	left	Choose the square with 6 dots	Crisp	-0.5	Numeric	-0.5	LtoR	-0.5	Small	-0.5	06:15:24	-0.75	expected	838	6.73101810048208	FALSE
s01	214	2	34	25	16	left	mid	right	left	Choose the square with 34 dots	Crisp	-0.5	Numeric	-0.5	RtoL	0.5	Large	0.5	16:25:34	-0.25	expected	1471	7.29369772060144	FALSE
s01	215	4	44	35	26	left	mid	right	left	Choose the square with the most dots	Crisp	-0.5	Verbal	0.5	RtoL	0.5	Large	0.5	26:35:44	0.25	expected	1251	7.13169851046691	FALSE
s01	216	2	36	45	54	left	mid	right	right	Choose the square with 36 dots	Crisp	-0.5	Numeric	-0.5	LtoR	-0.5	Small	-0.5	36:45:54	0.75	extreme	1150	7.0475172213573	FALSE
s01	217	1	6	15	24	right	mid	left	right	Choose a square with about 20 dots	Vague	0.5	Numeric	-0.5	LtoR	-0.5	Large	0.5	06:15:24	-0.75	expected	1436	7.26961674960817	FALSE
s01	218	3	16	25	34	right	mid	left	right	Choose a square with many dots	Vague	0.5	Verbal	0.5	LtoR	-0.5	Large	0.5	16:25:34	-0.25	expected	1352	7.20934025660291	FALSE
s01	219	3	26	35	44	left	mid	right	left	Choose a square with few dots	Vague	0.5	Verbal	0.5	LtoR	-0.5	Small	-0.5	26:35:44	0.25	expected	1199	7.08924315502751	FALSE
s01	220	1	54	45	36	right	mid	left	left	Choose a square with about 40 dots	Vague	0.5	Numeric	-0.5	RtoL	0.5	Small	-0.5	36:45:54	0.75	extreme	1804	7.49776170062257	FALSE
s01	221	4	6	15	24	left	mid	right	left	Choose the square with the fewest dots	Crisp	-0.5	Verbal	0.5	LtoR	-0.5	Small	-0.5	06:15:24	-0.75	expected	1254	7.13409372119287	FALSE
s01	222	4	16	25	34	left	mid	right	left	Choose the square with the fewest dots	Crisp	-0.5	Verbal	0.5	LtoR	-0.5	Small	-0.5	16:25:34	-0.25	expected	1291	7.16317239084664	FALSE
s01	223	1	44	35	26	right	mid	left	left	Choose a square with about 30 dots	Vague	0.5	Numeric	-0.5	RtoL	0.5	Small	-0.5	26:35:44	0.25	extreme	1175	7.06902342657826	FALSE
s01	224	4	54	45	36	right	mid	left	left	Choose the square with the fewest dots	Crisp	-0.5	Verbal	0.5	RtoL	0.5	Small	-0.5	36:45:54	0.75	extreme	1938	7.56941179245071	FALSE
s01	225	1	6	15	24	left	mid	right	mid	Choose a square with about 10 dots	Vague	0.5	Numeric	-0.5	LtoR	-0.5	Small	-0.5	06:15:24	-0.75	borderline	2501	7.82444593087762	TRUE
s01	226	1	16	25	34	right	mid	left	right	Choose a square with about 30 dots	Vague	0.5	Numeric	-0.5	LtoR	-0.5	Large	0.5	16:25:34	-0.25	expected	1986	7.59387784460512	FALSE
s01	227	1	26	35	44	left	mid	right	right	Choose a square with about 30 dots	Vague	0.5	Numeric	-0.5	LtoR	-0.5	Small	-0.5	26:35:44	0.25	extreme	1378	7.2283884515736	FALSE
s01	228	3	54	45	36	right	mid	left	mid	Choose a square with few dots	Vague	0.5	Verbal	0.5	RtoL	0.5	Small	-0.5	36:45:54	0.75	borderline	3158	8.05769419481559	TRUE
s01	229	4	24	15	6	left	mid	right	left	Choose the square with the most dots	Crisp	-0.5	Verbal	0.5	RtoL	0.5	Large	0.5	06:15:24	-0.75	expected	1427	7.26332961747684	FALSE
s01	230	4	16	25	34	right	mid	left	right	Choose the square with the most dots	Crisp	-0.5	Verbal	0.5	LtoR	-0.5	Large	0.5	16:25:34	-0.25	expected	1218	7.10496544826984	FALSE
s01	231	1	44	35	26	left	mid	right	left	Choose a square with about 40 dots	Vague	0.5	Numeric	-0.5	RtoL	0.5	Large	0.5	26:35:44	0.25	expected	1063	6.96885037834195	FALSE
s01	232	2	54	45	36	left	mid	right	left	Choose the square with 54 dots	Crisp	-0.5	Numeric	-0.5	RtoL	0.5	Large	0.5	36:45:54	0.75	expected	1297	7.16780918431644	FALSE
s01	233	2	6	15	24	right	mid	left	right	Choose the square with 24 dots	Crisp	-0.5	Numeric	-0.5	LtoR	-0.5	Large	0.5	06:15:24	-0.75	expected	2573	7.85282781228174	FALSE
s01	234	1	16	25	34	left	mid	right	mid	Choose a square with about 20 dots	Vague	0.5	Numeric	-0.5	LtoR	-0.5	Small	-0.5	16:25:34	-0.25	borderline	2250	7.71868549519847	TRUE
s01	235	3	44	35	26	left	mid	right	left	Choose a square with many dots	Vague	0.5	Verbal	0.5	RtoL	0.5	Large	0.5	26:35:44	0.25	expected	1457	7.2841348061952	FALSE
s01	236	4	36	45	54	right	mid	left	right	Choose the square with the most dots	Crisp	-0.5	Verbal	0.5	LtoR	-0.5	Large	0.5	36:45:54	0.75	expected	1118	7.01929665371504	FALSE
s01	237	3	24	15	6	left	mid	right	left	Choose a square with many dots	Vague	0.5	Verbal	0.5	RtoL	0.5	Large	0.5	06:15:24	-0.75	expected	2245	7.71646080017636	FALSE
s01	238	1	34	25	16	right	mid	left	mid	Choose a square with about 20 dots	Vague	0.5	Numeric	-0.5	RtoL	0.5	Small	-0.5	16:25:34	-0.25	borderline	2330	7.75362354655975	TRUE
s01	239	2	44	35	26	right	mid	left	mid	Choose the square with 26 dots	Crisp	-0.5	Numeric	-0.5	RtoL	0.5	Small	-0.5	26:35:44	0.25	borderline	3040	8.01961279440027	TRUE
s01	240	4	54	45	36	left	mid	right	left	Choose the square with the most dots	Crisp	-0.5	Verbal	0.5	RtoL	0.5	Large	0.5	36:45:54	0.75	expected	804	6.68959926917897	FALSE
s01	241	2	24	15	6	right	mid	left	right	Choose the square with 6 dots	Crisp	-0.5	Numeric	-0.5	RtoL	0.5	Small	-0.5	06:15:24	-0.75	expected	1247	7.12849594568004	FALSE
s01	242	2	34	25	16	right	mid	left	right	Choose the square with 16 dots	Crisp	-0.5	Numeric	-0.5	RtoL	0.5	Small	-0.5	16:25:34	-0.25	expected	2478	7.81520706218909	FALSE
s01	243	1	26	35	44	right	mid	left	right	Choose a square with about 40 dots	Vague	0.5	Numeric	-0.5	LtoR	-0.5	Large	0.5	26:35:44	0.25	expected	1475	7.29641326877392	FALSE
s01	244	1	36	45	54	right	mid	left	right	Choose a square with about 50 dots	Vague	0.5	Numeric	-0.5	LtoR	-0.5	Large	0.5	36:45:54	0.75	expected	1433	7.26752542782817	FALSE
s01	245	2	24	15	6	left	mid	right	left	Choose the square with 24 dots	Crisp	-0.5	Numeric	-0.5	RtoL	0.5	Large	0.5	06:15:24	-0.75	expected	1822	7.5076900778199	FALSE
s01	246	3	34	25	16	right	mid	left	right	Choose a square with few dots	Vague	0.5	Verbal	0.5	RtoL	0.5	Small	-0.5	16:25:34	-0.25	expected	1782	7.48549160803075	FALSE
s01	247	2	26	35	44	left	mid	right	mid	Choose the square with 26 dots	Crisp	-0.5	Numeric	-0.5	LtoR	-0.5	Small	-0.5	26:35:44	0.25	borderline	1448	7.27793857294566	TRUE
s01	248	3	54	45	36	left	mid	right	left	Choose a square with many dots	Vague	0.5	Verbal	0.5	RtoL	0.5	Large	0.5	36:45:54	0.75	expected	1679	7.42595365707754	FALSE
s01	249	3	6	15	24	left	mid	right	left	Choose a square with few dots	Vague	0.5	Verbal	0.5	LtoR	-0.5	Small	-0.5	06:15:24	-0.75	expected	1052	6.95844839329766	FALSE
s01	250	4	34	25	16	left	mid	right	left	Choose the square with the most dots	Crisp	-0.5	Verbal	0.5	RtoL	0.5	Large	0.5	16:25:34	-0.25	expected	1151	7.04838640872188	FALSE
s01	251	4	44	35	26	right	mid	left	right	Choose the square with the fewest dots	Crisp	-0.5	Verbal	0.5	RtoL	0.5	Small	-0.5	26:35:44	0.25	expected	2248	7.71779621101358	FALSE
s01	252	1	36	45	54	left	mid	right	right	Choose a square with about 40 dots	Vague	0.5	Numeric	-0.5	LtoR	-0.5	Small	-0.5	36:45:54	0.75	extreme	1766	7.47647238116391	FALSE
s01	253	1	24	15	6	left	mid	right	mid	Choose a square with about 20 dots	Vague	0.5	Numeric	-0.5	RtoL	0.5	Large	0.5	06:15:24	-0.75	borderline	2872	7.96276393016811	TRUE
s01	254	4	34	25	16	right	mid	left	right	Choose the square with the fewest dots	Crisp	-0.5	Verbal	0.5	RtoL	0.5	Small	-0.5	16:25:34	-0.25	expected	2537	7.83873755959928	FALSE
s01	255	4	26	35	44	right	mid	left	right	Choose the square with the most dots	Crisp	-0.5	Verbal	0.5	LtoR	-0.5	Large	0.5	26:35:44	0.25	expected	1008	6.91572344863131	FALSE
s01	256	3	36	45	54	left	mid	right	left	Choose a square with few dots	Vague	0.5	Verbal	0.5	LtoR	-0.5	Small	-0.5	36:45:54	0.75	expected	1476	7.29709100516042	FALSE
s02	1	1	24	15	6	right	mid	left	mid	Choose a square with about 10 dots	Vague	0.5	Numeric	-0.5	RtoL	0.5	Small	-0.5	06:15:24	-0.75	borderline	1915	7.55747290161475	TRUE
s02	2	2	16	25	34	left	mid	right	mid	Choose the square with 16 dots	Crisp	-0.5	Numeric	-0.5	LtoR	-0.5	Small	-0.5	16:25:34	-0.25	borderline	1617	7.38832785957711	TRUE
s02	3	2	26	35	44	right	mid	left	right	Choose the square with 44 dots	Crisp	-0.5	Numeric	-0.5	LtoR	-0.5	Large	0.5	26:35:44	0.25	expected	1150	7.0475172213573	FALSE
s02	4	4	36	45	54	left	mid	right	left	Choose the square with the fewest dots	Crisp	-0.5	Verbal	0.5	LtoR	-0.5	Small	-0.5	36:45:54	0.75	expected	1828	7.5109777520141	FALSE
s02	5	3	24	15	6	left	mid	right	left	Choose a square with many dots	Vague	0.5	Verbal	0.5	RtoL	0.5	Large	0.5	06:15:24	-0.75	expected	1441	7.27309259599952	FALSE
s02	6	3	34	25	16	right	mid	left	left	Choose a square with few dots	Vague	0.5	Verbal	0.5	RtoL	0.5	Small	-0.5	16:25:34	-0.25	extreme	1981	7.59135704669855	FALSE
s02	7	4	26	35	44	right	mid	left	right	Choose the square with the most dots	Crisp	-0.5	Verbal	0.5	LtoR	-0.5	Large	0.5	26:35:44	0.25	expected	1214	7.10167597161944	FALSE
s02	8	4	54	45	36	right	mid	left	right	Choose the square with the fewest dots	Crisp	-0.5	Verbal	0.5	RtoL	0.5	Small	-0.5	36:45:54	0.75	expected	1435	7.26892012819372	FALSE
s02	9	3	6	15	24	right	mid	left	right	Choose a square with many dots	Vague	0.5	Verbal	0.5	LtoR	-0.5	Large	0.5	06:15:24	-0.75	expected	1627	7.39449310721904	FALSE
s02	10	3	16	25	34	right	mid	left	right	Choose a square with many dots	Vague	0.5	Verbal	0.5	LtoR	-0.5	Large	0.5	16:25:34	-0.25	expected	1032	6.93925394604151	FALSE
s02	11	3	44	35	26	right	mid	left	left	Choose a square with few dots	Vague	0.5	Verbal	0.5	RtoL	0.5	Small	-0.5	26:35:44	0.25	extreme	769	6.64509096950564	FALSE
s02	12	1	54	45	36	left	mid	right	left	Choose a square with about 50 dots	Vague	0.5	Numeric	-0.5	RtoL	0.5	Large	0.5	36:45:54	0.75	expected	1040	6.94697599213542	FALSE
s02	13	3	6	15	24	left	mid	right	left	Choose a square with few dots	Vague	0.5	Verbal	0.5	LtoR	-0.5	Small	-0.5	06:15:24	-0.75	expected	1353	7.21007962817079	FALSE
s02	14	1	34	25	16	left	mid	right	mid	Choose a square with about 30 dots	Vague	0.5	Numeric	-0.5	RtoL	0.5	Large	0.5	16:25:34	-0.25	borderline	1245	7.12689080889881	TRUE
s02	15	4	26	35	44	left	mid	right	left	Choose the square with the fewest dots	Crisp	-0.5	Verbal	0.5	LtoR	-0.5	Small	-0.5	26:35:44	0.25	expected	1967	7.58426481838906	FALSE
s02	16	1	54	45	36	right	mid	left	mid	Choose a square with about 40 dots	Vague	0.5	Numeric	-0.5	RtoL	0.5	Small	-0.5	36:45:54	0.75	borderline	1677	7.42476176182321	TRUE
s02	17	1	24	15	6	left	mid	right	mid	Choose a square with about 20 dots	Vague	0.5	Numeric	-0.5	RtoL	0.5	Large	0.5	06:15:24	-0.75	borderline	1620	7.39018142822643	TRUE
s02	18	1	34	25	16	right	mid	left	right	Choose a square with about 20 dots	Vague	0.5	Numeric	-0.5	RtoL	0.5	Small	-0.5	16:25:34	-0.25	expected	1863	7.52994337060159	FALSE
s02	19	2	26	35	44	left	mid	right	mid	Choose the square with 26 dots	Crisp	-0.5	Numeric	-0.5	LtoR	-0.5	Small	-0.5	26:35:44	0.25	borderline	1337	7.19818357710194	TRUE
s02	20	3	54	45	36	left	mid	right	mid	Choose a square with many dots	Vague	0.5	Verbal	0.5	RtoL	0.5	Large	0.5	36:45:54	0.75	borderline	1406	7.24850407237061	TRUE
s02	21	2	6	15	24	left	mid	right	left	Choose the square with 6 dots	Crisp	-0.5	Numeric	-0.5	LtoR	-0.5	Small	-0.5	06:15:24	-0.75	expected	987	6.89467003943348	FALSE
s02	22	4	16	25	34	right	mid	left	right	Choose the square with the most dots	Crisp	-0.5	Verbal	0.5	LtoR	-0.5	Large	0.5	16:25:34	-0.25	expected	1198	7.08840877867539	FALSE
s02	23	2	44	35	26	right	mid	left	mid	Choose the square with 26 dots	Crisp	-0.5	Numeric	-0.5	RtoL	0.5	Small	-0.5	26:35:44	0.25	borderline	967	6.87419849545329	TRUE
s02	24	3	54	45	36	right	mid	left	right	Choose a square with few dots	Vague	0.5	Verbal	0.5	RtoL	0.5	Small	-0.5	36:45:54	0.75	expected	1649	7.4079243225596	FALSE
s02	25	4	24	15	6	right	mid	left	mid	Choose the square with the fewest dots	Crisp	-0.5	Verbal	0.5	RtoL	0.5	Small	-0.5	06:15:24	-0.75	borderline	1588	7.37023064180708	TRUE
s02	26	2	34	25	16	left	mid	right	mid	Choose the square with 34 dots	Crisp	-0.5	Numeric	-0.5	RtoL	0.5	Large	0.5	16:25:34	-0.25	borderline	943	6.84906628263346	TRUE
s02	27	3	26	35	44	right	mid	left	mid	Choose a square with many dots	Vague	0.5	Verbal	0.5	LtoR	-0.5	Large	0.5	26:35:44	0.25	borderline	1038	6.94505106372583	TRUE
s02	28	1	36	45	54	left	mid	right	left	Choose a square with about 40 dots	Vague	0.5	Numeric	-0.5	LtoR	-0.5	Small	-0.5	36:45:54	0.75	expected	1784	7.48661331313996	FALSE
s02	29	4	6	15	24	left	mid	right	left	Choose the square with the fewest dots	Crisp	-0.5	Verbal	0.5	LtoR	-0.5	Small	-0.5	06:15:24	-0.75	expected	1221	7.1074254741107	FALSE
s02	30	1	16	25	34	left	mid	right	left	Choose a square with about 20 dots	Vague	0.5	Numeric	-0.5	LtoR	-0.5	Small	-0.5	16:25:34	-0.25	expected	1209	7.09754885061479	FALSE
s02	31	1	26	35	44	left	mid	right	mid	Choose a square with about 30 dots	Vague	0.5	Numeric	-0.5	LtoR	-0.5	Small	-0.5	26:35:44	0.25	borderline	1666	7.41818082272679	TRUE
s02	32	1	36	45	54	right	mid	left	right	Choose a square with about 50 dots	Vague	0.5	Numeric	-0.5	LtoR	-0.5	Large	0.5	36:45:54	0.75	expected	911	6.81454289725996	FALSE
s02	33	1	6	15	24	right	mid	left	mid	Choose a square with about 20 dots	Vague	0.5	Numeric	-0.5	LtoR	-0.5	Large	0.5	06:15:24	-0.75	borderline	1938	7.56941179245071	TRUE
s02	34	3	34	25	16	left	mid	right	mid	Choose a square with many dots	Vague	0.5	Verbal	0.5	RtoL	0.5	Large	0.5	16:25:34	-0.25	borderline	1761	7.47363710849621	TRUE
s02	35	3	44	35	26	left	mid	right	mid	Choose a square with many dots	Vague	0.5	Verbal	0.5	RtoL	0.5	Large	0.5	26:35:44	0.25	borderline	1900	7.54960916515453	TRUE
s02	36	3	36	45	54	left	mid	right	left	Choose a square with few dots	Vague	0.5	Verbal	0.5	LtoR	-0.5	Small	-0.5	36:45:54	0.75	expected	1753	7.46908388492123	FALSE
s02	37	4	6	15	24	right	mid	left	right	Choose the square with the most dots	Crisp	-0.5	Verbal	0.5	LtoR	-0.5	Large	0.5	06:15:24	-0.75	expected	745	6.61338421837956	FALSE
s02	38	4	16	25	34	left	mid	right	left	Choose the square with the fewest dots	Crisp	-0.5	Verbal	0.5	LtoR	-0.5	Small	-0.5	16:25:34	-0.25	expected	1886	7.5422134631934	FALSE
s02	39	3	26	35	44	left	mid	right	left	Choose a square with few dots	Vague	0.5	Verbal	0.5	LtoR	-0.5	Small	-0.5	26:35:44	0.25	expected	1326	7.18992217074581	FALSE
s02	40	2	54	45	36	left	mid	right	right	Choose the square with 54 dots	Crisp	-0.5	Numeric	-0.5	RtoL	0.5	Large	0.5	36:45:54	0.75	extreme	1208	7.09672137849476	FALSE
s02	41	4	24	15	6	left	mid	right	left	Choose the square with the most dots	Crisp	-0.5	Verbal	0.5	RtoL	0.5	Large	0.5	06:15:24	-0.75	expected	1282	7.15617663748062	FALSE
s02	42	1	16	25	34	right	mid	left	mid	Choose a square with about 30 dots	Vague	0.5	Numeric	-0.5	LtoR	-0.5	Large	0.5	16:25:34	-0.25	borderline	859	6.75576892198425	TRUE
s02	43	1	44	35	26	left	mid	right	right	Choose a square with about 40 dots	Vague	0.5	Numeric	-0.5	RtoL	0.5	Large	0.5	26:35:44	0.25	extreme	1252	7.13249755166004	FALSE
s02	44	2	36	45	54	left	mid	right	left	Choose the square with 36 dots	Crisp	-0.5	Numeric	-0.5	LtoR	-0.5	Small	-0.5	36:45:54	0.75	expected	1426	7.26262860097424	FALSE
s02	45	2	24	15	6	left	mid	right	left	Choose the square with 24 dots	Crisp	-0.5	Numeric	-0.5	RtoL	0.5	Large	0.5	06:15:24	-0.75	expected	1591	7.37211802833779	FALSE
s02	46	3	16	25	34	left	mid	right	left	Choose a square with few dots	Vague	0.5	Verbal	0.5	LtoR	-0.5	Small	-0.5	16:25:34	-0.25	expected	1375	7.22620901010067	FALSE
s02	47	1	44	35	26	right	mid	left	mid	Choose a square with about 30 dots	Vague	0.5	Numeric	-0.5	RtoL	0.5	Small	-0.5	26:35:44	0.25	borderline	1328	7.19142933003638	TRUE
s02	48	4	36	45	54	right	mid	left	left	Choose the square with the most dots	Crisp	-0.5	Verbal	0.5	LtoR	-0.5	Large	0.5	36:45:54	0.75	extreme	2045	7.6231530684769	FALSE
s02	49	1	6	15	24	left	mid	right	mid	Choose a square with about 10 dots	Vague	0.5	Numeric	-0.5	LtoR	-0.5	Small	-0.5	06:15:24	-0.75	borderline	1562	7.35372233039963	TRUE
s02	50	2	16	25	34	right	mid	left	mid	Choose the square with 34 dots	Crisp	-0.5	Numeric	-0.5	LtoR	-0.5	Large	0.5	16:25:34	-0.25	borderline	1242	7.12447826249342	TRUE
s02	51	4	44	35	26	left	mid	right	mid	Choose the square with the most dots	Crisp	-0.5	Verbal	0.5	RtoL	0.5	Large	0.5	26:35:44	0.25	borderline	2367	7.76937860951398	TRUE
s02	52	3	36	45	54	right	mid	left	right	Choose a square with many dots	Vague	0.5	Verbal	0.5	LtoR	-0.5	Large	0.5	36:45:54	0.75	expected	1084	6.98841318199959	FALSE
s02	53	2	24	15	6	right	mid	left	right	Choose the square with 6 dots	Crisp	-0.5	Numeric	-0.5	RtoL	0.5	Small	-0.5	06:15:24	-0.75	expected	1334	7.19593722647557	FALSE
s02	54	4	34	25	16	right	mid	left	right	Choose the square with the fewest dots	Crisp	-0.5	Verbal	0.5	RtoL	0.5	Small	-0.5	16:25:34	-0.25	expected	1088	6.99209642741589	FALSE
s02	55	4	44	35	26	right	mid	left	right	Choose the square with the fewest dots	Crisp	-0.5	Verbal	0.5	RtoL	0.5	Small	-0.5	26:35:44	0.25	expected	1762	7.47420480649612	FALSE
s02	56	4	54	45	36	left	mid	right	left	Choose the square with the most dots	Crisp	-0.5	Verbal	0.5	RtoL	0.5	Large	0.5	36:45:54	0.75	expected	1544	7.34213173058472	FALSE
s02	57	2	6	15	24	right	mid	left	right	Choose the square with 24 dots	Crisp	-0.5	Numeric	-0.5	LtoR	-0.5	Large	0.5	06:15:24	-0.75	expected	2131	7.66434663209862	FALSE
s02	58	4	34	25	16	left	mid	right	left	Choose the square with the most dots	Crisp	-0.5	Verbal	0.5	RtoL	0.5	Large	0.5	16:25:34	-0.25	expected	1543	7.34148385236316	FALSE
s02	59	2	44	35	26	left	mid	right	left	Choose the square with 44 dots	Crisp	-0.5	Numeric	-0.5	RtoL	0.5	Large	0.5	26:35:44	0.25	expected	833	6.72503364216684	FALSE
s02	60	2	54	45	36	right	mid	left	mid	Choose the square with 36 dots	Crisp	-0.5	Numeric	-0.5	RtoL	0.5	Small	-0.5	36:45:54	0.75	borderline	1088	6.99209642741589	TRUE
s02	61	3	24	15	6	right	mid	left	right	Choose a square with few dots	Vague	0.5	Verbal	0.5	RtoL	0.5	Small	-0.5	06:15:24	-0.75	expected	885	6.78558764500793	FALSE
s02	62	2	34	25	16	right	mid	left	right	Choose the square with 16 dots	Crisp	-0.5	Numeric	-0.5	RtoL	0.5	Small	-0.5	16:25:34	-0.25	expected	1875	7.53636393840451	FALSE
s02	63	1	26	35	44	right	mid	left	mid	Choose a square with about 40 dots	Vague	0.5	Numeric	-0.5	LtoR	-0.5	Large	0.5	26:35:44	0.25	borderline	1788	7.48885295573346	TRUE
s02	64	2	36	45	54	right	mid	left	right	Choose the square with 54 dots	Crisp	-0.5	Numeric	-0.5	LtoR	-0.5	Large	0.5	36:45:54	0.75	expected	1919	7.5595594960077	FALSE
s02	65	2	24	15	6	left	mid	right	left	Choose the square with 24 dots	Crisp	-0.5	Numeric	-0.5	RtoL	0.5	Large	0.5	06:15:24	-0.75	expected	5056	8.52833093582669	FALSE
s02	66	2	34	25	16	left	mid	right	mid	Choose the square with 34 dots	Crisp	-0.5	Numeric	-0.5	RtoL	0.5	Large	0.5	16:25:34	-0.25	borderline	1777	7.48268182815465	TRUE
s02	67	4	26	35	44	right	mid	left	right	Choose the square with the most dots	Crisp	-0.5	Verbal	0.5	LtoR	-0.5	Large	0.5	26:35:44	0.25	expected	657	6.48768401848461	FALSE
s02	68	4	36	45	54	right	mid	left	right	Choose the square with the most dots	Crisp	-0.5	Verbal	0.5	LtoR	-0.5	Large	0.5	36:45:54	0.75	expected	1944	7.57250298502038	FALSE
s02	69	4	6	15	24	right	mid	left	right	Choose the square with the most dots	Crisp	-0.5	Verbal	0.5	LtoR	-0.5	Large	0.5	06:15:24	-0.75	expected	1443	7.27447955877387	FALSE
s02	70	4	16	25	34	left	mid	right	left	Choose the square with the fewest dots	Crisp	-0.5	Verbal	0.5	LtoR	-0.5	Small	-0.5	16:25:34	-0.25	expected	1506	7.31721240835984	FALSE
s02	71	3	44	35	26	right	mid	left	right	Choose a square with few dots	Vague	0.5	Verbal	0.5	RtoL	0.5	Small	-0.5	26:35:44	0.25	expected	776	6.65415252018322	FALSE
s02	72	4	54	45	36	right	mid	left	right	Choose the square with the fewest dots	Crisp	-0.5	Verbal	0.5	RtoL	0.5	Small	-0.5	36:45:54	0.75	expected	1356	7.21229446850034	FALSE
s02	73	2	6	15	24	right	mid	left	mid	Choose the square with 24 dots	Crisp	-0.5	Numeric	-0.5	LtoR	-0.5	Large	0.5	06:15:24	-0.75	borderline	11150	9.31919477688827	TRUE
s02	74	1	16	25	34	left	mid	right	left	Choose a square with about 20 dots	Vague	0.5	Numeric	-0.5	LtoR	-0.5	Small	-0.5	16:25:34	-0.25	expected	2902	7.97315543344413	FALSE
s02	75	1	44	35	26	right	mid	left	right	Choose a square with about 30 dots	Vague	0.5	Numeric	-0.5	RtoL	0.5	Small	-0.5	26:35:44	0.25	expected	1645	7.40549566319947	FALSE
s02	76	3	54	45	36	left	mid	right	left	Choose a square with many dots	Vague	0.5	Verbal	0.5	RtoL	0.5	Large	0.5	36:45:54	0.75	expected	1079	6.98378996525813	FALSE
s02	77	1	6	15	24	right	mid	left	mid	Choose a square with about 20 dots	Vague	0.5	Numeric	-0.5	LtoR	-0.5	Large	0.5	06:15:24	-0.75	borderline	1538	7.33823815006559	TRUE
s02	78	3	34	25	16	right	mid	left	right	Choose a square with few dots	Vague	0.5	Verbal	0.5	RtoL	0.5	Small	-0.5	16:25:34	-0.25	expected	2314	7.74673290775362	FALSE
s02	79	1	26	35	44	right	mid	left	mid	Choose a square with about 40 dots	Vague	0.5	Numeric	-0.5	LtoR	-0.5	Large	0.5	26:35:44	0.25	borderline	1353	7.21007962817079	TRUE
s02	80	1	36	45	54	right	mid	left	right	Choose a square with about 50 dots	Vague	0.5	Numeric	-0.5	LtoR	-0.5	Large	0.5	36:45:54	0.75	expected	2284	7.7336835707759	FALSE
s02	81	4	24	15	6	left	mid	right	left	Choose the square with the most dots	Crisp	-0.5	Verbal	0.5	RtoL	0.5	Large	0.5	06:15:24	-0.75	expected	684	6.52795791762255	FALSE
s02	82	1	16	25	34	right	mid	left	left	Choose a square with about 30 dots	Vague	0.5	Numeric	-0.5	LtoR	-0.5	Large	0.5	16:25:34	-0.25	extreme	2169	7.68202151082687	FALSE
s02	83	3	26	35	44	right	mid	left	right	Choose a square with many dots	Vague	0.5	Verbal	0.5	LtoR	-0.5	Large	0.5	26:35:44	0.25	expected	1040	6.94697599213542	FALSE
s02	84	2	54	45	36	right	mid	left	right	Choose the square with 36 dots	Crisp	-0.5	Numeric	-0.5	RtoL	0.5	Small	-0.5	36:45:54	0.75	expected	1065	6.97073007814353	FALSE
s02	85	3	6	15	24	left	mid	right	left	Choose a square with few dots	Vague	0.5	Verbal	0.5	LtoR	-0.5	Small	-0.5	06:15:24	-0.75	expected	875	6.77422388635761	FALSE
s02	86	2	16	25	34	left	mid	right	mid	Choose the square with 16 dots	Crisp	-0.5	Numeric	-0.5	LtoR	-0.5	Small	-0.5	16:25:34	-0.25	borderline	5723	8.6522484224091	TRUE
s02	87	3	44	35	26	left	mid	right	left	Choose a square with many dots	Vague	0.5	Verbal	0.5	RtoL	0.5	Large	0.5	26:35:44	0.25	expected	1089	6.99301512293296	FALSE
s02	88	3	36	45	54	right	mid	left	right	Choose a square with many dots	Vague	0.5	Verbal	0.5	LtoR	-0.5	Large	0.5	36:45:54	0.75	expected	1761	7.47363710849621	FALSE
s02	89	1	6	15	24	left	mid	right	mid	Choose a square with about 10 dots	Vague	0.5	Numeric	-0.5	LtoR	-0.5	Small	-0.5	06:15:24	-0.75	borderline	2302	7.74153358928183	TRUE
s02	90	2	16	25	34	right	mid	left	mid	Choose the square with 34 dots	Crisp	-0.5	Numeric	-0.5	LtoR	-0.5	Large	0.5	16:25:34	-0.25	borderline	2708	7.90396563403217	TRUE
s02	91	3	26	35	44	left	mid	right	left	Choose a square with few dots	Vague	0.5	Verbal	0.5	LtoR	-0.5	Small	-0.5	26:35:44	0.25	expected	814	6.70196036600254	FALSE
s02	92	4	36	45	54	left	mid	right	mid	Choose the square with the fewest dots	Crisp	-0.5	Verbal	0.5	LtoR	-0.5	Small	-0.5	36:45:54	0.75	borderline	4531	8.41869794466714	TRUE
s02	93	3	6	15	24	right	mid	left	right	Choose a square with many dots	Vague	0.5	Verbal	0.5	LtoR	-0.5	Large	0.5	06:15:24	-0.75	expected	956	6.8627579130514	FALSE
s02	94	4	34	25	16	right	mid	left	right	Choose the square with the fewest dots	Crisp	-0.5	Verbal	0.5	RtoL	0.5	Small	-0.5	16:25:34	-0.25	expected	929	6.83410873881384	FALSE
s02	95	4	44	35	26	left	mid	right	left	Choose the square with the most dots	Crisp	-0.5	Verbal	0.5	RtoL	0.5	Large	0.5	26:35:44	0.25	expected	1718	7.4489161025442	FALSE
s02	96	1	54	45	36	left	mid	right	left	Choose a square with about 50 dots	Vague	0.5	Numeric	-0.5	RtoL	0.5	Large	0.5	36:45:54	0.75	expected	1528	7.33171496972647	FALSE
s02	97	1	24	15	6	right	mid	left	mid	Choose a square with about 10 dots	Vague	0.5	Numeric	-0.5	RtoL	0.5	Small	-0.5	06:15:24	-0.75	borderline	1561	7.35308192051543	TRUE
s02	98	1	34	25	16	right	mid	left	right	Choose a square with about 20 dots	Vague	0.5	Numeric	-0.5	RtoL	0.5	Small	-0.5	16:25:34	-0.25	expected	1821	7.50714107972761	FALSE
s02	99	2	26	35	44	right	mid	left	mid	Choose the square with 44 dots	Crisp	-0.5	Numeric	-0.5	LtoR	-0.5	Large	0.5	26:35:44	0.25	borderline	1382	7.23128700432762	TRUE
s02	100	3	36	45	54	left	mid	right	left	Choose a square with few dots	Vague	0.5	Verbal	0.5	LtoR	-0.5	Small	-0.5	36:45:54	0.75	expected	2169	7.68202151082687	FALSE
s02	101	2	24	15	6	right	mid	left	right	Choose the square with 6 dots	Crisp	-0.5	Numeric	-0.5	RtoL	0.5	Small	-0.5	06:15:24	-0.75	expected	1000	6.90775527898214	FALSE
s02	102	1	34	25	16	left	mid	right	left	Choose a square with about 30 dots	Vague	0.5	Numeric	-0.5	RtoL	0.5	Large	0.5	16:25:34	-0.25	expected	1342	7.20191631753163	FALSE
s02	103	4	44	35	26	right	mid	left	right	Choose the square with the fewest dots	Crisp	-0.5	Verbal	0.5	RtoL	0.5	Small	-0.5	26:35:44	0.25	expected	1392	7.23849684089437	FALSE
s02	104	2	54	45	36	left	mid	right	left	Choose the square with 54 dots	Crisp	-0.5	Numeric	-0.5	RtoL	0.5	Large	0.5	36:45:54	0.75	expected	2682	7.89431806384162	FALSE
s02	105	3	24	15	6	left	mid	right	left	Choose a square with many dots	Vague	0.5	Verbal	0.5	RtoL	0.5	Large	0.5	06:15:24	-0.75	expected	585	6.37161184723186	FALSE
s02	106	3	34	25	16	left	mid	right	left	Choose a square with many dots	Vague	0.5	Verbal	0.5	RtoL	0.5	Large	0.5	16:25:34	-0.25	expected	1306	7.17472430983638	FALSE
s02	107	2	44	35	26	right	mid	left	mid	Choose the square with 26 dots	Crisp	-0.5	Numeric	-0.5	RtoL	0.5	Small	-0.5	26:35:44	0.25	borderline	1030	6.93731408122368	TRUE
s02	108	1	54	45	36	right	mid	left	right	Choose a square with about 40 dots	Vague	0.5	Numeric	-0.5	RtoL	0.5	Small	-0.5	36:45:54	0.75	expected	1286	7.15929190479756	FALSE
s02	109	3	24	15	6	right	mid	left	right	Choose a square with few dots	Vague	0.5	Verbal	0.5	RtoL	0.5	Small	-0.5	06:15:24	-0.75	expected	1767	7.4770384723197	FALSE
s02	110	4	16	25	34	right	mid	left	right	Choose the square with the most dots	Crisp	-0.5	Verbal	0.5	LtoR	-0.5	Large	0.5	16:25:34	-0.25	expected	975	6.88243747099785	FALSE
s02	111	2	26	35	44	left	mid	right	mid	Choose the square with 26 dots	Crisp	-0.5	Numeric	-0.5	LtoR	-0.5	Small	-0.5	26:35:44	0.25	borderline	1444	7.27517231945277	TRUE
s02	112	4	54	45	36	left	mid	right	left	Choose the square with the most dots	Crisp	-0.5	Verbal	0.5	RtoL	0.5	Large	0.5	36:45:54	0.75	expected	1554	7.34858753092759	FALSE
s02	113	1	24	15	6	left	mid	right	mid	Choose a square with about 20 dots	Vague	0.5	Numeric	-0.5	RtoL	0.5	Large	0.5	06:15:24	-0.75	borderline	1157	7.05358572719368	TRUE
s02	114	2	34	25	16	right	mid	left	right	Choose the square with 16 dots	Crisp	-0.5	Numeric	-0.5	RtoL	0.5	Small	-0.5	16:25:34	-0.25	expected	1610	7.38398945797851	FALSE
s02	115	1	44	35	26	left	mid	right	left	Choose a square with about 40 dots	Vague	0.5	Numeric	-0.5	RtoL	0.5	Large	0.5	26:35:44	0.25	expected	1337	7.19818357710194	FALSE
s02	116	3	54	45	36	right	mid	left	left	Choose a square with few dots	Vague	0.5	Verbal	0.5	RtoL	0.5	Small	-0.5	36:45:54	0.75	extreme	1841	7.51806418123308	FALSE
s02	117	4	6	15	24	left	mid	right	left	Choose the square with the fewest dots	Crisp	-0.5	Verbal	0.5	LtoR	-0.5	Small	-0.5	06:15:24	-0.75	expected	1896	7.54750168281497	FALSE
s02	118	3	16	25	34	left	mid	right	right	Choose a square with few dots	Vague	0.5	Verbal	0.5	LtoR	-0.5	Small	-0.5	16:25:34	-0.25	extreme	1273	7.14913159855741	FALSE
s02	119	1	26	35	44	left	mid	right	mid	Choose a square with about 30 dots	Vague	0.5	Numeric	-0.5	LtoR	-0.5	Small	-0.5	26:35:44	0.25	borderline	1135	7.0343879299155	TRUE
s02	120	1	36	45	54	left	mid	right	left	Choose a square with about 40 dots	Vague	0.5	Numeric	-0.5	LtoR	-0.5	Small	-0.5	36:45:54	0.75	expected	1291	7.16317239084664	FALSE
s02	121	4	24	15	6	right	mid	left	right	Choose the square with the fewest dots	Crisp	-0.5	Verbal	0.5	RtoL	0.5	Small	-0.5	06:15:24	-0.75	expected	1143	7.04141166379481	FALSE
s02	122	4	34	25	16	left	mid	right	left	Choose the square with the most dots	Crisp	-0.5	Verbal	0.5	RtoL	0.5	Large	0.5	16:25:34	-0.25	expected	760	6.63331843328038	FALSE
s02	123	2	44	35	26	left	mid	right	left	Choose the square with 44 dots	Crisp	-0.5	Numeric	-0.5	RtoL	0.5	Large	0.5	26:35:44	0.25	expected	2446	7.80220931624712	FALSE
s02	124	2	36	45	54	right	mid	left	right	Choose the square with 54 dots	Crisp	-0.5	Numeric	-0.5	LtoR	-0.5	Large	0.5	36:45:54	0.75	expected	655	6.48463523563525	FALSE
s02	125	2	6	15	24	left	mid	right	left	Choose the square with 6 dots	Crisp	-0.5	Numeric	-0.5	LtoR	-0.5	Small	-0.5	06:15:24	-0.75	expected	1558	7.35115822643069	FALSE
s02	126	3	16	25	34	right	mid	left	right	Choose a square with many dots	Vague	0.5	Verbal	0.5	LtoR	-0.5	Large	0.5	16:25:34	-0.25	expected	1048	6.95463886488099	FALSE
s02	127	4	26	35	44	left	mid	right	left	Choose the square with the fewest dots	Crisp	-0.5	Verbal	0.5	LtoR	-0.5	Small	-0.5	26:35:44	0.25	expected	1380	7.22983877815125	FALSE
s02	128	2	36	45	54	left	mid	right	left	Choose the square with 36 dots	Crisp	-0.5	Numeric	-0.5	LtoR	-0.5	Small	-0.5	36:45:54	0.75	expected	1317	7.18311170174328	FALSE
s02	129	1	24	15	6	right	mid	left	mid	Choose a square with about 10 dots	Vague	0.5	Numeric	-0.5	RtoL	0.5	Small	-0.5	06:15:24	-0.75	borderline	710	6.56526497003536	TRUE
s02	130	1	34	25	16	right	mid	left	right	Choose a square with about 20 dots	Vague	0.5	Numeric	-0.5	RtoL	0.5	Small	-0.5	16:25:34	-0.25	expected	753	6.62406522779989	FALSE
s02	131	3	44	35	26	left	mid	right	left	Choose a square with many dots	Vague	0.5	Verbal	0.5	RtoL	0.5	Large	0.5	26:35:44	0.25	expected	450	6.10924758276437	FALSE
s02	132	1	36	45	54	right	mid	left	mid	Choose a square with about 50 dots	Vague	0.5	Numeric	-0.5	LtoR	-0.5	Large	0.5	36:45:54	0.75	borderline	907	6.81014245011514	TRUE
s02	133	2	24	15	6	right	mid	left	right	Choose the square with 6 dots	Crisp	-0.5	Numeric	-0.5	RtoL	0.5	Small	-0.5	06:15:24	-0.75	expected	713	6.5694814204143	FALSE
s02	134	3	34	25	16	left	mid	right	left	Choose a square with many dots	Vague	0.5	Verbal	0.5	RtoL	0.5	Large	0.5	16:25:34	-0.25	expected	574	6.35262939631957	FALSE
s02	135	3	26	35	44	left	mid	right	left	Choose a square with few dots	Vague	0.5	Verbal	0.5	LtoR	-0.5	Small	-0.5	26:35:44	0.25	expected	1150	7.0475172213573	FALSE
s02	136	3	36	45	54	right	mid	left	right	Choose a square with many dots	Vague	0.5	Verbal	0.5	LtoR	-0.5	Large	0.5	36:45:54	0.75	expected	621	6.43133108193348	FALSE
s02	137	4	24	15	6	right	mid	left	mid	Choose the square with the fewest dots	Crisp	-0.5	Verbal	0.5	RtoL	0.5	Small	-0.5	06:15:24	-0.75	borderline	876	6.77536609093639	TRUE
s02	138	4	34	25	16	right	mid	left	right	Choose the square with the fewest dots	Crisp	-0.5	Verbal	0.5	RtoL	0.5	Small	-0.5	16:25:34	-0.25	expected	1821	7.50714107972761	FALSE
s02	139	4	44	35	26	left	mid	right	left	Choose the square with the most dots	Crisp	-0.5	Verbal	0.5	RtoL	0.5	Large	0.5	26:35:44	0.25	expected	1850	7.52294091807237	FALSE
s02	140	3	54	45	36	right	mid	left	mid	Choose a square with few dots	Vague	0.5	Verbal	0.5	RtoL	0.5	Small	-0.5	36:45:54	0.75	borderline	1488	7.30518821539304	TRUE
s02	141	3	24	15	6	left	mid	right	left	Choose a square with many dots	Vague	0.5	Verbal	0.5	RtoL	0.5	Large	0.5	06:15:24	-0.75	expected	1512	7.32118855673948	FALSE
s02	142	3	34	25	16	right	mid	left	right	Choose a square with few dots	Vague	0.5	Verbal	0.5	RtoL	0.5	Small	-0.5	16:25:34	-0.25	expected	1093	6.99668148817654	FALSE
s02	143	2	26	35	44	left	mid	right	left	Choose the square with 26 dots	Crisp	-0.5	Numeric	-0.5	LtoR	-0.5	Small	-0.5	26:35:44	0.25	expected	1277	7.15226885603254	FALSE
s02	144	2	36	45	54	right	mid	left	right	Choose the square with 54 dots	Crisp	-0.5	Numeric	-0.5	LtoR	-0.5	Large	0.5	36:45:54	0.75	expected	1531	7.33367639565768	FALSE
s02	145	3	6	15	24	left	mid	right	left	Choose a square with few dots	Vague	0.5	Verbal	0.5	LtoR	-0.5	Small	-0.5	06:15:24	-0.75	expected	1238	7.12125245324454	FALSE
s02	146	4	16	25	34	right	mid	left	mid	Choose the square with the most dots	Crisp	-0.5	Verbal	0.5	LtoR	-0.5	Large	0.5	16:25:34	-0.25	borderline	1203	7.09257371597468	TRUE
s02	147	1	44	35	26	left	mid	right	right	Choose a square with about 40 dots	Vague	0.5	Numeric	-0.5	RtoL	0.5	Large	0.5	26:35:44	0.25	extreme	1590	7.37148929521428	FALSE
s02	148	1	54	45	36	left	mid	right	mid	Choose a square with about 50 dots	Vague	0.5	Numeric	-0.5	RtoL	0.5	Large	0.5	36:45:54	0.75	borderline	841	6.73459165997295	TRUE
s02	149	2	24	15	6	left	mid	right	left	Choose the square with 24 dots	Crisp	-0.5	Numeric	-0.5	RtoL	0.5	Large	0.5	06:15:24	-0.75	expected	1306	7.17472430983638	FALSE
s02	150	4	16	25	34	left	mid	right	left	Choose the square with the fewest dots	Crisp	-0.5	Verbal	0.5	LtoR	-0.5	Small	-0.5	16:25:34	-0.25	expected	982	6.88959130835447	FALSE
s02	151	2	44	35	26	right	mid	left	mid	Choose the square with 26 dots	Crisp	-0.5	Numeric	-0.5	RtoL	0.5	Small	-0.5	26:35:44	0.25	borderline	910	6.8134445995109	TRUE
s02	152	4	54	45	36	left	mid	right	left	Choose the square with the most dots	Crisp	-0.5	Verbal	0.5	RtoL	0.5	Large	0.5	36:45:54	0.75	expected	790	6.67203294546107	FALSE
s02	153	1	6	15	24	right	mid	left	right	Choose a square with about 20 dots	Vague	0.5	Numeric	-0.5	LtoR	-0.5	Large	0.5	06:15:24	-0.75	expected	1696	7.43602781635185	FALSE
s02	154	1	16	25	34	left	mid	right	left	Choose a square with about 20 dots	Vague	0.5	Numeric	-0.5	LtoR	-0.5	Small	-0.5	16:25:34	-0.25	expected	1819	7.50604217851812	FALSE
s02	155	3	44	35	26	right	mid	left	right	Choose a square with few dots	Vague	0.5	Verbal	0.5	RtoL	0.5	Small	-0.5	26:35:44	0.25	expected	697	6.54678541076052	FALSE
s02	156	1	36	45	54	left	mid	right	left	Choose a square with about 40 dots	Vague	0.5	Numeric	-0.5	LtoR	-0.5	Small	-0.5	36:45:54	0.75	expected	819	6.70808408385307	FALSE
s02	157	1	6	15	24	left	mid	right	mid	Choose a square with about 10 dots	Vague	0.5	Numeric	-0.5	LtoR	-0.5	Small	-0.5	06:15:24	-0.75	borderline	1346	7.20489251020467	TRUE
s02	158	2	16	25	34	left	mid	right	mid	Choose the square with 16 dots	Crisp	-0.5	Numeric	-0.5	LtoR	-0.5	Small	-0.5	16:25:34	-0.25	borderline	1673	7.42237370098682	TRUE
s02	159	4	26	35	44	right	mid	left	left	Choose the square with the most dots	Crisp	-0.5	Verbal	0.5	LtoR	-0.5	Large	0.5	26:35:44	0.25	extreme	2824	7.94590959861313	FALSE
s02	160	3	54	45	36	left	mid	right	right	Choose a square with many dots	Vague	0.5	Verbal	0.5	RtoL	0.5	Large	0.5	36:45:54	0.75	extreme	1659	7.41397029019044	FALSE
s02	161	1	24	15	6	left	mid	right	left	Choose a square with about 20 dots	Vague	0.5	Numeric	-0.5	RtoL	0.5	Large	0.5	06:15:24	-0.75	expected	1058	6.96413561241824	FALSE
s02	162	2	16	25	34	right	mid	left	mid	Choose the square with 34 dots	Crisp	-0.5	Numeric	-0.5	LtoR	-0.5	Large	0.5	16:25:34	-0.25	borderline	972	6.87935580446044	TRUE
s02	163	1	26	35	44	left	mid	right	mid	Choose a square with about 30 dots	Vague	0.5	Numeric	-0.5	LtoR	-0.5	Small	-0.5	26:35:44	0.25	borderline	1912	7.55590509361135	TRUE
s02	164	2	36	45	54	left	mid	right	left	Choose the square with 36 dots	Crisp	-0.5	Numeric	-0.5	LtoR	-0.5	Small	-0.5	36:45:54	0.75	expected	1525	7.32974968904151	FALSE
s02	165	4	6	15	24	left	mid	right	left	Choose the square with the fewest dots	Crisp	-0.5	Verbal	0.5	LtoR	-0.5	Small	-0.5	06:15:24	-0.75	expected	973	6.880384082186	FALSE
s02	166	2	34	25	16	right	mid	left	right	Choose the square with 16 dots	Crisp	-0.5	Numeric	-0.5	RtoL	0.5	Small	-0.5	16:25:34	-0.25	expected	1111	7.01301578963963	FALSE
s02	167	2	44	35	26	left	mid	right	mid	Choose the square with 44 dots	Crisp	-0.5	Numeric	-0.5	RtoL	0.5	Large	0.5	26:35:44	0.25	borderline	1777	7.48268182815465	TRUE
s02	168	4	54	45	36	right	mid	left	left	Choose the square with the fewest dots	Crisp	-0.5	Verbal	0.5	RtoL	0.5	Small	-0.5	36:45:54	0.75	extreme	2179	7.68662133494462	FALSE
s02	169	3	24	15	6	right	mid	left	right	Choose a square with few dots	Vague	0.5	Verbal	0.5	RtoL	0.5	Small	-0.5	06:15:24	-0.75	expected	837	6.72982407048948	FALSE
s02	170	1	34	25	16	left	mid	right	mid	Choose a square with about 30 dots	Vague	0.5	Numeric	-0.5	RtoL	0.5	Large	0.5	16:25:34	-0.25	borderline	2075	7.6377164326648	TRUE
s02	171	1	26	35	44	right	mid	left	mid	Choose a square with about 40 dots	Vague	0.5	Numeric	-0.5	LtoR	-0.5	Large	0.5	26:35:44	0.25	borderline	1401	7.24494154633701	TRUE
s02	172	4	36	45	54	left	mid	right	left	Choose the square with the fewest dots	Crisp	-0.5	Verbal	0.5	LtoR	-0.5	Small	-0.5	36:45:54	0.75	expected	1300	7.17011954344963	FALSE
s02	173	4	6	15	24	right	mid	left	right	Choose the square with the most dots	Crisp	-0.5	Verbal	0.5	LtoR	-0.5	Large	0.5	06:15:24	-0.75	expected	1562	7.35372233039963	FALSE
s02	174	4	34	25	16	left	mid	right	left	Choose the square with the most dots	Crisp	-0.5	Verbal	0.5	RtoL	0.5	Large	0.5	16:25:34	-0.25	expected	1781	7.48493028328966	FALSE
s02	175	3	26	35	44	right	mid	left	mid	Choose a square with many dots	Vague	0.5	Verbal	0.5	LtoR	-0.5	Large	0.5	26:35:44	0.25	borderline	1823	7.50823877467866	TRUE
s02	176	2	54	45	36	left	mid	right	left	Choose the square with 54 dots	Crisp	-0.5	Numeric	-0.5	RtoL	0.5	Large	0.5	36:45:54	0.75	expected	1131	7.03085747611612	FALSE
s02	177	4	24	15	6	left	mid	right	left	Choose the square with the most dots	Crisp	-0.5	Verbal	0.5	RtoL	0.5	Large	0.5	06:15:24	-0.75	expected	1122	7.02286808608264	FALSE
s02	178	1	16	25	34	right	mid	left	mid	Choose a square with about 30 dots	Vague	0.5	Numeric	-0.5	LtoR	-0.5	Large	0.5	16:25:34	-0.25	borderline	3307	8.10379671298179	TRUE
s02	179	4	44	35	26	right	mid	left	right	Choose the square with the fewest dots	Crisp	-0.5	Verbal	0.5	RtoL	0.5	Small	-0.5	26:35:44	0.25	expected	955	6.86171134048073	FALSE
s02	180	1	54	45	36	right	mid	left	left	Choose a square with about 40 dots	Vague	0.5	Numeric	-0.5	RtoL	0.5	Small	-0.5	36:45:54	0.75	extreme	892	6.79346613258001	FALSE
s02	181	3	6	15	24	right	mid	left	right	Choose a square with many dots	Vague	0.5	Verbal	0.5	LtoR	-0.5	Large	0.5	06:15:24	-0.75	expected	1681	7.42714413340862	FALSE
s02	182	3	16	25	34	left	mid	right	left	Choose a square with few dots	Vague	0.5	Verbal	0.5	LtoR	-0.5	Small	-0.5	16:25:34	-0.25	expected	1158	7.05444965813294	FALSE
s02	183	4	26	35	44	left	mid	right	left	Choose the square with the fewest dots	Crisp	-0.5	Verbal	0.5	LtoR	-0.5	Small	-0.5	26:35:44	0.25	expected	1240	7.12286665859908	FALSE
s02	184	4	36	45	54	right	mid	left	right	Choose the square with the most dots	Crisp	-0.5	Verbal	0.5	LtoR	-0.5	Large	0.5	36:45:54	0.75	expected	1346	7.20489251020467	FALSE
s02	185	2	6	15	24	left	mid	right	left	Choose the square with 6 dots	Crisp	-0.5	Numeric	-0.5	LtoR	-0.5	Small	-0.5	06:15:24	-0.75	expected	1170	7.0647590277918	FALSE
s02	186	2	34	25	16	left	mid	right	mid	Choose the square with 34 dots	Crisp	-0.5	Numeric	-0.5	RtoL	0.5	Large	0.5	16:25:34	-0.25	borderline	1727	7.45414107814668	TRUE
s02	187	2	26	35	44	right	mid	left	right	Choose the square with 44 dots	Crisp	-0.5	Numeric	-0.5	LtoR	-0.5	Large	0.5	26:35:44	0.25	expected	1927	7.56371966841437	FALSE
s02	188	3	36	45	54	left	mid	right	left	Choose a square with few dots	Vague	0.5	Verbal	0.5	LtoR	-0.5	Small	-0.5	36:45:54	0.75	expected	924	6.82871207164168	FALSE
s02	189	2	6	15	24	right	mid	left	mid	Choose the square with 24 dots	Crisp	-0.5	Numeric	-0.5	LtoR	-0.5	Large	0.5	06:15:24	-0.75	borderline	1231	7.11558212618445	TRUE
s02	190	3	16	25	34	right	mid	left	right	Choose a square with many dots	Vague	0.5	Verbal	0.5	LtoR	-0.5	Large	0.5	16:25:34	-0.25	expected	2030	7.61579107203583	FALSE
s02	191	1	44	35	26	right	mid	left	mid	Choose a square with about 30 dots	Vague	0.5	Numeric	-0.5	RtoL	0.5	Small	-0.5	26:35:44	0.25	borderline	889	6.7900972355139	TRUE
s02	192	2	54	45	36	right	mid	left	right	Choose the square with 36 dots	Crisp	-0.5	Numeric	-0.5	RtoL	0.5	Small	-0.5	36:45:54	0.75	expected	2383	7.77611547709874	FALSE
s02	193	2	6	15	24	right	mid	left	mid	Choose the square with 24 dots	Crisp	-0.5	Numeric	-0.5	LtoR	-0.5	Large	0.5	06:15:24	-0.75	borderline	727	6.58892647753352	TRUE
s02	194	3	16	25	34	left	mid	right	mid	Choose a square with few dots	Vague	0.5	Verbal	0.5	LtoR	-0.5	Small	-0.5	16:25:34	-0.25	borderline	1334	7.19593722647557	TRUE
s02	195	4	44	35	26	right	mid	left	right	Choose the square with the fewest dots	Crisp	-0.5	Verbal	0.5	RtoL	0.5	Small	-0.5	26:35:44	0.25	expected	995	6.90274273715859	FALSE
s02	196	2	54	45	36	left	mid	right	mid	Choose the square with 54 dots	Crisp	-0.5	Numeric	-0.5	RtoL	0.5	Large	0.5	36:45:54	0.75	borderline	1684	7.42892719480227	TRUE
s02	197	2	6	15	24	left	mid	right	left	Choose the square with 6 dots	Crisp	-0.5	Numeric	-0.5	LtoR	-0.5	Small	-0.5	06:15:24	-0.75	expected	734	6.59850902861452	FALSE
s02	198	3	34	25	16	right	mid	left	right	Choose a square with few dots	Vague	0.5	Verbal	0.5	RtoL	0.5	Small	-0.5	16:25:34	-0.25	expected	754	6.62539236800796	FALSE
s02	199	1	44	35	26	left	mid	right	mid	Choose a square with about 40 dots	Vague	0.5	Numeric	-0.5	RtoL	0.5	Large	0.5	26:35:44	0.25	borderline	1629	7.39572160860205	TRUE
s02	200	2	36	45	54	right	mid	left	mid	Choose the square with 54 dots	Crisp	-0.5	Numeric	-0.5	LtoR	-0.5	Large	0.5	36:45:54	0.75	borderline	1583	7.36707705988101	TRUE
s02	201	2	24	15	6	right	mid	left	right	Choose the square with 6 dots	Crisp	-0.5	Numeric	-0.5	RtoL	0.5	Small	-0.5	06:15:24	-0.75	expected	811	6.69826805411541	FALSE
s02	202	2	34	25	16	left	mid	right	mid	Choose the square with 34 dots	Crisp	-0.5	Numeric	-0.5	RtoL	0.5	Large	0.5	16:25:34	-0.25	borderline	1547	7.34407285057307	TRUE
s02	203	3	44	35	26	left	mid	right	left	Choose a square with many dots	Vague	0.5	Verbal	0.5	RtoL	0.5	Large	0.5	26:35:44	0.25	expected	1128	7.028201432058	FALSE
s02	204	1	54	45	36	right	mid	left	left	Choose a square with about 40 dots	Vague	0.5	Numeric	-0.5	RtoL	0.5	Small	-0.5	36:45:54	0.75	extreme	1158	7.05444965813294	FALSE
s02	205	1	24	15	6	right	mid	left	mid	Choose a square with about 10 dots	Vague	0.5	Numeric	-0.5	RtoL	0.5	Small	-0.5	06:15:24	-0.75	borderline	1119	7.02019070831193	TRUE
s02	206	1	16	25	34	right	mid	left	mid	Choose a square with about 30 dots	Vague	0.5	Numeric	-0.5	LtoR	-0.5	Large	0.5	16:25:34	-0.25	borderline	1068	6.97354301952014	TRUE
s02	207	1	44	35	26	right	mid	left	right	Choose a square with about 30 dots	Vague	0.5	Numeric	-0.5	RtoL	0.5	Small	-0.5	26:35:44	0.25	expected	1367	7.22037383672395	FALSE
s02	208	2	36	45	54	left	mid	right	left	Choose the square with 36 dots	Crisp	-0.5	Numeric	-0.5	LtoR	-0.5	Small	-0.5	36:45:54	0.75	expected	1146	7.04403289727469	FALSE
s02	209	3	24	15	6	right	mid	left	right	Choose a square with few dots	Vague	0.5	Verbal	0.5	RtoL	0.5	Small	-0.5	06:15:24	-0.75	expected	1273	7.14913159855741	FALSE
s02	210	3	34	25	16	left	mid	right	left	Choose a square with many dots	Vague	0.5	Verbal	0.5	RtoL	0.5	Large	0.5	16:25:34	-0.25	expected	1863	7.52994337060159	FALSE
s02	211	4	44	35	26	left	mid	right	left	Choose the square with the most dots	Crisp	-0.5	Verbal	0.5	RtoL	0.5	Large	0.5	26:35:44	0.25	expected	1599	7.37713371283395	FALSE
s02	212	3	54	45	36	right	mid	left	right	Choose a square with few dots	Vague	0.5	Verbal	0.5	RtoL	0.5	Small	-0.5	36:45:54	0.75	expected	1318	7.18387071506245	FALSE
s02	213	3	6	15	24	left	mid	right	left	Choose a square with few dots	Vague	0.5	Verbal	0.5	LtoR	-0.5	Small	-0.5	06:15:24	-0.75	expected	1358	7.21376830811864	FALSE
s02	214	1	16	25	34	left	mid	right	left	Choose a square with about 20 dots	Vague	0.5	Numeric	-0.5	LtoR	-0.5	Small	-0.5	16:25:34	-0.25	expected	1461	7.2868764117507	FALSE
s02	215	3	26	35	44	left	mid	right	right	Choose a square with few dots	Vague	0.5	Verbal	0.5	LtoR	-0.5	Small	-0.5	26:35:44	0.25	extreme	2857	7.95752740223077	FALSE
s02	216	1	54	45	36	left	mid	right	left	Choose a square with about 50 dots	Vague	0.5	Numeric	-0.5	RtoL	0.5	Large	0.5	36:45:54	0.75	expected	1092	6.99576615630485	FALSE
s02	217	1	24	15	6	left	mid	right	mid	Choose a square with about 20 dots	Vague	0.5	Numeric	-0.5	RtoL	0.5	Large	0.5	06:15:24	-0.75	borderline	679	6.5206211275587	TRUE
s02	218	2	16	25	34	left	mid	right	left	Choose the square with 16 dots	Crisp	-0.5	Numeric	-0.5	LtoR	-0.5	Small	-0.5	16:25:34	-0.25	expected	1407	7.24921505711439	FALSE
s02	219	1	26	35	44	left	mid	right	left	Choose a square with about 30 dots	Vague	0.5	Numeric	-0.5	LtoR	-0.5	Small	-0.5	26:35:44	0.25	expected	1203	7.09257371597468	FALSE
s02	220	3	36	45	54	left	mid	right	left	Choose a square with few dots	Vague	0.5	Verbal	0.5	LtoR	-0.5	Small	-0.5	36:45:54	0.75	expected	1542	7.34083555412327	FALSE
s02	221	2	24	15	6	left	mid	right	left	Choose the square with 24 dots	Crisp	-0.5	Numeric	-0.5	RtoL	0.5	Large	0.5	06:15:24	-0.75	expected	1429	7.26473017792987	FALSE
s02	222	2	34	25	16	right	mid	left	mid	Choose the square with 16 dots	Crisp	-0.5	Numeric	-0.5	RtoL	0.5	Small	-0.5	16:25:34	-0.25	borderline	1201	7.09090982207998	TRUE
s02	223	3	44	35	26	right	mid	left	right	Choose a square with few dots	Vague	0.5	Verbal	0.5	RtoL	0.5	Small	-0.5	26:35:44	0.25	expected	1167	7.06219163228656	FALSE
s02	224	1	36	45	54	left	mid	right	left	Choose a square with about 40 dots	Vague	0.5	Numeric	-0.5	LtoR	-0.5	Small	-0.5	36:45:54	0.75	expected	1668	7.41938058291869	FALSE
s02	225	4	24	15	6	right	mid	left	right	Choose the square with the fewest dots	Crisp	-0.5	Verbal	0.5	RtoL	0.5	Small	-0.5	06:15:24	-0.75	expected	1335	7.19668657083435	FALSE
s02	226	1	34	25	16	right	mid	left	right	Choose a square with about 20 dots	Vague	0.5	Numeric	-0.5	RtoL	0.5	Small	-0.5	16:25:34	-0.25	expected	860	6.75693238924755	FALSE
s02	227	4	26	35	44	right	mid	left	right	Choose the square with the most dots	Crisp	-0.5	Verbal	0.5	LtoR	-0.5	Large	0.5	26:35:44	0.25	expected	2404	7.7848892956551	FALSE
s02	228	3	36	45	54	right	mid	left	right	Choose a square with many dots	Vague	0.5	Verbal	0.5	LtoR	-0.5	Large	0.5	36:45:54	0.75	expected	701	6.55250788703459	FALSE
s02	229	3	6	15	24	right	mid	left	right	Choose a square with many dots	Vague	0.5	Verbal	0.5	LtoR	-0.5	Large	0.5	06:15:24	-0.75	expected	1978	7.58984151218266	FALSE
s02	230	2	16	25	34	right	mid	left	right	Choose the square with 34 dots	Crisp	-0.5	Numeric	-0.5	LtoR	-0.5	Large	0.5	16:25:34	-0.25	expected	1896	7.54750168281497	FALSE
s02	231	4	26	35	44	left	mid	right	left	Choose the square with the fewest dots	Crisp	-0.5	Verbal	0.5	LtoR	-0.5	Small	-0.5	26:35:44	0.25	expected	1432	7.26682734752059	FALSE
s02	232	4	54	45	36	right	mid	left	right	Choose the square with the fewest dots	Crisp	-0.5	Verbal	0.5	RtoL	0.5	Small	-0.5	36:45:54	0.75	expected	1396	7.24136628332232	FALSE
s02	233	1	6	15	24	left	mid	right	left	Choose a square with about 10 dots	Vague	0.5	Numeric	-0.5	LtoR	-0.5	Small	-0.5	06:15:24	-0.75	expected	1120	7.02108396428914	FALSE
s02	234	4	34	25	16	right	mid	left	right	Choose the square with the fewest dots	Crisp	-0.5	Verbal	0.5	RtoL	0.5	Small	-0.5	16:25:34	-0.25	expected	2376	7.77317368048254	FALSE
s02	235	2	44	35	26	right	mid	left	mid	Choose the square with 26 dots	Crisp	-0.5	Numeric	-0.5	RtoL	0.5	Small	-0.5	26:35:44	0.25	borderline	918	6.82219739062049	TRUE
s02	236	4	36	45	54	right	mid	left	right	Choose the square with the most dots	Crisp	-0.5	Verbal	0.5	LtoR	-0.5	Large	0.5	36:45:54	0.75	expected	1789	7.48941208350872	FALSE
s02	237	4	6	15	24	right	mid	left	right	Choose the square with the most dots	Crisp	-0.5	Verbal	0.5	LtoR	-0.5	Large	0.5	06:15:24	-0.75	expected	1771	7.47929963778283	FALSE
s02	238	4	16	25	34	right	mid	left	right	Choose the square with the most dots	Crisp	-0.5	Verbal	0.5	LtoR	-0.5	Large	0.5	16:25:34	-0.25	expected	1320	7.18538701558042	FALSE
s02	239	2	26	35	44	right	mid	left	left	Choose the square with 44 dots	Crisp	-0.5	Numeric	-0.5	LtoR	-0.5	Large	0.5	26:35:44	0.25	extreme	1478	7.29844510150815	FALSE
s02	240	1	36	45	54	right	mid	left	right	Choose a square with about 50 dots	Vague	0.5	Numeric	-0.5	LtoR	-0.5	Large	0.5	36:45:54	0.75	expected	2399	7.78280726283969	FALSE
s02	241	3	24	15	6	left	mid	right	left	Choose a square with many dots	Vague	0.5	Verbal	0.5	RtoL	0.5	Large	0.5	06:15:24	-0.75	expected	742	6.60934924316738	FALSE
s02	242	4	16	25	34	left	mid	right	left	Choose the square with the fewest dots	Crisp	-0.5	Verbal	0.5	LtoR	-0.5	Small	-0.5	16:25:34	-0.25	expected	1064	6.96979066990159	FALSE
s02	243	2	44	35	26	left	mid	right	left	Choose the square with 44 dots	Crisp	-0.5	Numeric	-0.5	RtoL	0.5	Large	0.5	26:35:44	0.25	expected	1247	7.12849594568004	FALSE
s02	244	4	36	45	54	left	mid	right	left	Choose the square with the fewest dots	Crisp	-0.5	Verbal	0.5	LtoR	-0.5	Small	-0.5	36:45:54	0.75	expected	1646	7.40610338123702	FALSE
s02	245	4	6	15	24	left	mid	right	left	Choose the square with the fewest dots	Crisp	-0.5	Verbal	0.5	LtoR	-0.5	Small	-0.5	06:15:24	-0.75	expected	1231	7.11558212618445	FALSE
s02	246	4	34	25	16	left	mid	right	left	Choose the square with the most dots	Crisp	-0.5	Verbal	0.5	RtoL	0.5	Large	0.5	16:25:34	-0.25	expected	1750	7.46737106691756	FALSE
s02	247	1	26	35	44	right	mid	left	right	Choose a square with about 40 dots	Vague	0.5	Numeric	-0.5	LtoR	-0.5	Large	0.5	26:35:44	0.25	expected	1733	7.45760928971561	FALSE
s02	248	2	54	45	36	right	mid	left	right	Choose the square with 36 dots	Crisp	-0.5	Numeric	-0.5	RtoL	0.5	Small	-0.5	36:45:54	0.75	expected	1548	7.34471905414967	FALSE
s02	249	1	6	15	24	right	mid	left	mid	Choose a square with about 20 dots	Vague	0.5	Numeric	-0.5	LtoR	-0.5	Large	0.5	06:15:24	-0.75	borderline	1512	7.32118855673948	TRUE
s02	250	3	16	25	34	right	mid	left	right	Choose a square with many dots	Vague	0.5	Verbal	0.5	LtoR	-0.5	Large	0.5	16:25:34	-0.25	expected	702	6.55393340402581	FALSE
s02	251	3	26	35	44	right	mid	left	right	Choose a square with many dots	Vague	0.5	Verbal	0.5	LtoR	-0.5	Large	0.5	26:35:44	0.25	expected	1197	7.08757370555797	FALSE
s02	252	3	54	45	36	left	mid	right	left	Choose a square with many dots	Vague	0.5	Verbal	0.5	RtoL	0.5	Large	0.5	36:45:54	0.75	expected	677	6.51767127291227	FALSE
s02	253	4	24	15	6	left	mid	right	left	Choose the square with the most dots	Crisp	-0.5	Verbal	0.5	RtoL	0.5	Large	0.5	06:15:24	-0.75	expected	580	6.36302810354046	FALSE
s02	254	1	34	25	16	left	mid	right	left	Choose a square with about 30 dots	Vague	0.5	Numeric	-0.5	RtoL	0.5	Large	0.5	16:25:34	-0.25	expected	1806	7.49886973397693	FALSE
s02	255	2	26	35	44	left	mid	right	mid	Choose the square with 26 dots	Crisp	-0.5	Numeric	-0.5	LtoR	-0.5	Small	-0.5	26:35:44	0.25	borderline	796	6.67959918584438	TRUE
s02	256	4	54	45	36	left	mid	right	left	Choose the square with the most dots	Crisp	-0.5	Verbal	0.5	RtoL	0.5	Large	0.5	36:45:54	0.75	expected	1464	7.28892769452126	FALSE
s03	1	4	24	15	6	right	mid	left	right	Choose the square with the fewest dots	Crisp	-0.5	Verbal	0.5	RtoL	0.5	Small	-0.5	06:15:24	-0.75	expected	669	6.50578406012823	FALSE
s03	2	1	34	25	16	left	mid	right	left	Choose a square with about 30 dots	Vague	0.5	Numeric	-0.5	RtoL	0.5	Large	0.5	16:25:34	-0.25	expected	898	6.8001700683022	FALSE
s03	3	1	26	35	44	right	mid	left	mid	Choose a square with about 40 dots	Vague	0.5	Numeric	-0.5	LtoR	-0.5	Large	0.5	26:35:44	0.25	borderline	1424	7.26122509197192	TRUE
s03	4	2	54	45	36	left	mid	right	left	Choose the square with 54 dots	Crisp	-0.5	Numeric	-0.5	RtoL	0.5	Large	0.5	36:45:54	0.75	expected	1178	7.07157336421153	FALSE
s03	5	4	24	15	6	left	mid	right	left	Choose the square with the most dots	Crisp	-0.5	Verbal	0.5	RtoL	0.5	Large	0.5	06:15:24	-0.75	expected	820	6.7093043402583	FALSE
s03	6	1	16	25	34	right	mid	left	right	Choose a square with about 30 dots	Vague	0.5	Numeric	-0.5	LtoR	-0.5	Large	0.5	16:25:34	-0.25	expected	1132	7.03174125876313	FALSE
s03	7	4	44	35	26	right	mid	left	right	Choose the square with the fewest dots	Crisp	-0.5	Verbal	0.5	RtoL	0.5	Small	-0.5	26:35:44	0.25	expected	1038	6.94505106372583	FALSE
s03	8	4	36	45	54	left	mid	right	left	Choose the square with the fewest dots	Crisp	-0.5	Verbal	0.5	LtoR	-0.5	Small	-0.5	36:45:54	0.75	expected	925	6.82979373751242	FALSE
s03	9	1	24	15	6	right	mid	left	mid	Choose a square with about 10 dots	Vague	0.5	Numeric	-0.5	RtoL	0.5	Small	-0.5	06:15:24	-0.75	borderline	1040	6.94697599213542	TRUE
s03	10	3	16	25	34	right	mid	left	right	Choose a square with many dots	Vague	0.5	Verbal	0.5	LtoR	-0.5	Large	0.5	16:25:34	-0.25	expected	1123	7.02375895473844	FALSE
s03	11	3	26	35	44	right	mid	left	right	Choose a square with many dots	Vague	0.5	Verbal	0.5	LtoR	-0.5	Large	0.5	26:35:44	0.25	expected	975	6.88243747099785	FALSE
s03	12	4	36	45	54	right	mid	left	right	Choose the square with the most dots	Crisp	-0.5	Verbal	0.5	LtoR	-0.5	Large	0.5	36:45:54	0.75	expected	850	6.74523634948436	FALSE
s03	13	3	6	15	24	right	mid	left	right	Choose a square with many dots	Vague	0.5	Verbal	0.5	LtoR	-0.5	Large	0.5	06:15:24	-0.75	expected	983	6.89060912014717	FALSE
s03	14	2	34	25	16	left	mid	right	left	Choose the square with 34 dots	Crisp	-0.5	Numeric	-0.5	RtoL	0.5	Large	0.5	16:25:34	-0.25	expected	1184	7.07665381544395	FALSE
s03	15	3	44	35	26	right	mid	left	right	Choose a square with few dots	Vague	0.5	Verbal	0.5	RtoL	0.5	Small	-0.5	26:35:44	0.25	expected	1148	7.04577657687951	FALSE
s03	16	4	54	45	36	right	mid	left	right	Choose the square with the fewest dots	Crisp	-0.5	Verbal	0.5	RtoL	0.5	Small	-0.5	36:45:54	0.75	expected	1511	7.32052696227274	FALSE
s03	17	1	6	15	24	right	mid	left	right	Choose a square with about 20 dots	Vague	0.5	Numeric	-0.5	LtoR	-0.5	Large	0.5	06:15:24	-0.75	expected	1242	7.12447826249342	FALSE
s03	18	3	16	25	34	left	mid	right	left	Choose a square with few dots	Vague	0.5	Verbal	0.5	LtoR	-0.5	Small	-0.5	16:25:34	-0.25	expected	886	6.78671695060508	FALSE
s03	19	2	26	35	44	right	mid	left	mid	Choose the square with 44 dots	Crisp	-0.5	Numeric	-0.5	LtoR	-0.5	Large	0.5	26:35:44	0.25	borderline	1534	7.3356339819272	TRUE
s03	20	2	36	45	54	right	mid	left	right	Choose the square with 54 dots	Crisp	-0.5	Numeric	-0.5	LtoR	-0.5	Large	0.5	36:45:54	0.75	expected	1226	7.11151211649616	FALSE
s03	21	1	24	15	6	left	mid	right	left	Choose a square with about 20 dots	Vague	0.5	Numeric	-0.5	RtoL	0.5	Large	0.5	06:15:24	-0.75	expected	1018	6.92559519711047	FALSE
s03	22	4	16	25	34	left	mid	right	left	Choose the square with the fewest dots	Crisp	-0.5	Verbal	0.5	LtoR	-0.5	Small	-0.5	16:25:34	-0.25	expected	1358	7.21376830811864	FALSE
s03	23	3	44	35	26	left	mid	right	left	Choose a square with many dots	Vague	0.5	Verbal	0.5	RtoL	0.5	Large	0.5	26:35:44	0.25	expected	1248	7.12929754892937	FALSE
s03	24	1	54	45	36	left	mid	right	mid	Choose a square with about 50 dots	Vague	0.5	Numeric	-0.5	RtoL	0.5	Large	0.5	36:45:54	0.75	borderline	1689	7.4318919168078	TRUE
s03	25	2	24	15	6	left	mid	right	left	Choose the square with 24 dots	Crisp	-0.5	Numeric	-0.5	RtoL	0.5	Large	0.5	06:15:24	-0.75	expected	1006	6.91373735065968	FALSE
s03	26	2	16	25	34	left	mid	right	mid	Choose the square with 16 dots	Crisp	-0.5	Numeric	-0.5	LtoR	-0.5	Small	-0.5	16:25:34	-0.25	borderline	1544	7.34213173058472	TRUE
s03	27	1	44	35	26	right	mid	left	mid	Choose a square with about 30 dots	Vague	0.5	Numeric	-0.5	RtoL	0.5	Small	-0.5	26:35:44	0.25	borderline	1904	7.55171221535131	TRUE
s03	28	4	54	45	36	left	mid	right	left	Choose the square with the most dots	Crisp	-0.5	Verbal	0.5	RtoL	0.5	Large	0.5	36:45:54	0.75	expected	1139	7.03790596344718	FALSE
s03	29	4	6	15	24	left	mid	right	left	Choose the square with the fewest dots	Crisp	-0.5	Verbal	0.5	LtoR	-0.5	Small	-0.5	06:15:24	-0.75	expected	941	6.84694313958538	FALSE
s03	30	1	16	25	34	left	mid	right	mid	Choose a square with about 20 dots	Vague	0.5	Numeric	-0.5	LtoR	-0.5	Small	-0.5	16:25:34	-0.25	borderline	1300	7.17011954344963	TRUE
s03	31	2	44	35	26	right	mid	left	mid	Choose the square with 26 dots	Crisp	-0.5	Numeric	-0.5	RtoL	0.5	Small	-0.5	26:35:44	0.25	borderline	2629	7.87435882472988	TRUE
s03	32	1	36	45	54	right	mid	left	right	Choose a square with about 50 dots	Vague	0.5	Numeric	-0.5	LtoR	-0.5	Large	0.5	36:45:54	0.75	expected	1233	7.11720550316434	FALSE
s03	33	3	24	15	6	right	mid	left	right	Choose a square with few dots	Vague	0.5	Verbal	0.5	RtoL	0.5	Small	-0.5	06:15:24	-0.75	expected	1091	6.99484998583307	FALSE
s03	34	4	34	25	16	left	mid	right	left	Choose the square with the most dots	Crisp	-0.5	Verbal	0.5	RtoL	0.5	Large	0.5	16:25:34	-0.25	expected	1503	7.31521838975297	FALSE
s03	35	3	26	35	44	left	mid	right	left	Choose a square with few dots	Vague	0.5	Verbal	0.5	LtoR	-0.5	Small	-0.5	26:35:44	0.25	expected	1335	7.19668657083435	FALSE
s03	36	1	36	45	54	left	mid	right	left	Choose a square with about 40 dots	Vague	0.5	Numeric	-0.5	LtoR	-0.5	Small	-0.5	36:45:54	0.75	expected	1969	7.58528107863913	FALSE
s03	37	3	6	15	24	left	mid	right	left	Choose a square with few dots	Vague	0.5	Verbal	0.5	LtoR	-0.5	Small	-0.5	06:15:24	-0.75	expected	925	6.82979373751242	FALSE
s03	38	4	16	25	34	right	mid	left	right	Choose the square with the most dots	Crisp	-0.5	Verbal	0.5	LtoR	-0.5	Large	0.5	16:25:34	-0.25	expected	911	6.81454289725996	FALSE
s03	39	4	26	35	44	right	mid	left	right	Choose the square with the most dots	Crisp	-0.5	Verbal	0.5	LtoR	-0.5	Large	0.5	26:35:44	0.25	expected	748	6.61740297797448	FALSE
s03	40	1	54	45	36	right	mid	left	right	Choose a square with about 40 dots	Vague	0.5	Numeric	-0.5	RtoL	0.5	Small	-0.5	36:45:54	0.75	expected	2049	7.6251071482389	FALSE
s03	41	1	6	15	24	left	mid	right	mid	Choose a square with about 10 dots	Vague	0.5	Numeric	-0.5	LtoR	-0.5	Small	-0.5	06:15:24	-0.75	borderline	1557	7.350516171834	TRUE
s03	42	1	34	25	16	right	mid	left	right	Choose a square with about 20 dots	Vague	0.5	Numeric	-0.5	RtoL	0.5	Small	-0.5	16:25:34	-0.25	expected	1710	7.44424864949671	FALSE
s03	43	2	26	35	44	left	mid	right	left	Choose the square with 26 dots	Crisp	-0.5	Numeric	-0.5	LtoR	-0.5	Small	-0.5	26:35:44	0.25	expected	1274	7.14991683613211	FALSE
s03	44	3	36	45	54	left	mid	right	left	Choose a square with few dots	Vague	0.5	Verbal	0.5	LtoR	-0.5	Small	-0.5	36:45:54	0.75	expected	1690	7.43248380791712	FALSE
s03	45	4	6	15	24	right	mid	left	right	Choose the square with the most dots	Crisp	-0.5	Verbal	0.5	LtoR	-0.5	Large	0.5	06:15:24	-0.75	expected	1043	6.94985645500077	FALSE
s03	46	4	34	25	16	right	mid	left	right	Choose the square with the fewest dots	Crisp	-0.5	Verbal	0.5	RtoL	0.5	Small	-0.5	16:25:34	-0.25	expected	1638	7.40123126441302	FALSE
s03	47	4	26	35	44	left	mid	right	left	Choose the square with the fewest dots	Crisp	-0.5	Verbal	0.5	LtoR	-0.5	Small	-0.5	26:35:44	0.25	expected	958	6.86484777797086	FALSE
s03	48	2	54	45	36	right	mid	left	right	Choose the square with 36 dots	Crisp	-0.5	Numeric	-0.5	RtoL	0.5	Small	-0.5	36:45:54	0.75	expected	1099	7.00215595440362	FALSE
s03	49	2	6	15	24	right	mid	left	right	Choose the square with 24 dots	Crisp	-0.5	Numeric	-0.5	LtoR	-0.5	Large	0.5	06:15:24	-0.75	expected	1729	7.45529848568329	FALSE
s03	50	3	34	25	16	right	mid	left	right	Choose a square with few dots	Vague	0.5	Verbal	0.5	RtoL	0.5	Small	-0.5	16:25:34	-0.25	expected	1386	7.23417717974985	FALSE
s03	51	2	44	35	26	left	mid	right	mid	Choose the square with 44 dots	Crisp	-0.5	Numeric	-0.5	RtoL	0.5	Large	0.5	26:35:44	0.25	borderline	1374	7.22548147278229	TRUE
s03	52	2	36	45	54	left	mid	right	left	Choose the square with 36 dots	Crisp	-0.5	Numeric	-0.5	LtoR	-0.5	Small	-0.5	36:45:54	0.75	expected	1225	7.11069612297883	FALSE
s03	53	3	24	15	6	left	mid	right	left	Choose a square with many dots	Vague	0.5	Verbal	0.5	RtoL	0.5	Large	0.5	06:15:24	-0.75	expected	1297	7.16780918431644	FALSE
s03	54	2	34	25	16	right	mid	left	mid	Choose the square with 16 dots	Crisp	-0.5	Numeric	-0.5	RtoL	0.5	Small	-0.5	16:25:34	-0.25	borderline	1496	7.31055015853442	TRUE
s03	55	1	44	35	26	left	mid	right	mid	Choose a square with about 40 dots	Vague	0.5	Numeric	-0.5	RtoL	0.5	Large	0.5	26:35:44	0.25	borderline	2244	7.71601526664259	TRUE
s03	56	3	36	45	54	right	mid	left	right	Choose a square with many dots	Vague	0.5	Verbal	0.5	LtoR	-0.5	Large	0.5	36:45:54	0.75	expected	987	6.89467003943348	FALSE
s03	57	2	24	15	6	right	mid	left	right	Choose the square with 6 dots	Crisp	-0.5	Numeric	-0.5	RtoL	0.5	Small	-0.5	06:15:24	-0.75	expected	1300	7.17011954344963	FALSE
s03	58	2	16	25	34	right	mid	left	right	Choose the square with 34 dots	Crisp	-0.5	Numeric	-0.5	LtoR	-0.5	Large	0.5	16:25:34	-0.25	expected	1966	7.58375630070711	FALSE
s03	59	4	44	35	26	left	mid	right	left	Choose the square with the most dots	Crisp	-0.5	Verbal	0.5	RtoL	0.5	Large	0.5	26:35:44	0.25	expected	1553	7.34794382314869	FALSE
s03	60	3	54	45	36	right	mid	left	right	Choose a square with few dots	Vague	0.5	Verbal	0.5	RtoL	0.5	Small	-0.5	36:45:54	0.75	expected	1801	7.49609734517596	FALSE
s03	61	2	6	15	24	left	mid	right	left	Choose the square with 6 dots	Crisp	-0.5	Numeric	-0.5	LtoR	-0.5	Small	-0.5	06:15:24	-0.75	expected	982	6.88959130835447	FALSE
s03	62	3	34	25	16	left	mid	right	left	Choose a square with many dots	Vague	0.5	Verbal	0.5	RtoL	0.5	Large	0.5	16:25:34	-0.25	expected	2869	7.96171881598136	FALSE
s03	63	1	26	35	44	left	mid	right	mid	Choose a square with about 30 dots	Vague	0.5	Numeric	-0.5	LtoR	-0.5	Small	-0.5	26:35:44	0.25	borderline	1271	7.14755927118945	TRUE
s03	64	3	54	45	36	left	mid	right	left	Choose a square with many dots	Vague	0.5	Verbal	0.5	RtoL	0.5	Large	0.5	36:45:54	0.75	expected	898	6.8001700683022	FALSE
s03	65	2	6	15	24	left	mid	right	left	Choose the square with 6 dots	Crisp	-0.5	Numeric	-0.5	LtoR	-0.5	Small	-0.5	06:15:24	-0.75	expected	1284	7.15773548424991	FALSE
s03	66	4	16	25	34	left	mid	right	left	Choose the square with the fewest dots	Crisp	-0.5	Verbal	0.5	LtoR	-0.5	Small	-0.5	16:25:34	-0.25	expected	804	6.68959926917897	FALSE
s03	67	1	44	35	26	right	mid	left	right	Choose a square with about 30 dots	Vague	0.5	Numeric	-0.5	RtoL	0.5	Small	-0.5	26:35:44	0.25	expected	2383	7.77611547709874	FALSE
s03	68	3	36	45	54	right	mid	left	right	Choose a square with many dots	Vague	0.5	Verbal	0.5	LtoR	-0.5	Large	0.5	36:45:54	0.75	expected	637	6.45676965557216	FALSE
s03	69	3	6	15	24	left	mid	right	left	Choose a square with few dots	Vague	0.5	Verbal	0.5	LtoR	-0.5	Small	-0.5	06:15:24	-0.75	expected	678	6.5191472879404	FALSE
s03	70	3	34	25	16	left	mid	right	left	Choose a square with many dots	Vague	0.5	Verbal	0.5	RtoL	0.5	Large	0.5	16:25:34	-0.25	expected	674	6.51323011091231	FALSE
s03	71	2	26	35	44	right	mid	left	right	Choose the square with 44 dots	Crisp	-0.5	Numeric	-0.5	LtoR	-0.5	Large	0.5	26:35:44	0.25	expected	1480	7.29979736675816	FALSE
s03	72	1	54	45	36	right	mid	left	mid	Choose a square with about 40 dots	Vague	0.5	Numeric	-0.5	RtoL	0.5	Small	-0.5	36:45:54	0.75	borderline	1887	7.54274354536855	TRUE
s03	73	4	24	15	6	right	mid	left	right	Choose the square with the fewest dots	Crisp	-0.5	Verbal	0.5	RtoL	0.5	Small	-0.5	06:15:24	-0.75	expected	741	6.60800062529609	FALSE
s03	74	4	34	25	16	right	mid	left	right	Choose the square with the fewest dots	Crisp	-0.5	Verbal	0.5	RtoL	0.5	Small	-0.5	16:25:34	-0.25	expected	1144	7.04228617193974	FALSE
s03	75	4	26	35	44	left	mid	right	left	Choose the square with the fewest dots	Crisp	-0.5	Verbal	0.5	LtoR	-0.5	Small	-0.5	26:35:44	0.25	expected	808	6.69456205852109	FALSE
s03	76	2	54	45	36	left	mid	right	left	Choose the square with 54 dots	Crisp	-0.5	Numeric	-0.5	RtoL	0.5	Large	0.5	36:45:54	0.75	expected	997	6.90475076996184	FALSE
s03	77	4	6	15	24	left	mid	right	left	Choose the square with the fewest dots	Crisp	-0.5	Verbal	0.5	LtoR	-0.5	Small	-0.5	06:15:24	-0.75	expected	671	6.50876913697168	FALSE
s03	78	3	16	25	34	left	mid	right	left	Choose a square with few dots	Vague	0.5	Verbal	0.5	LtoR	-0.5	Small	-0.5	16:25:34	-0.25	expected	790	6.67203294546107	FALSE
s03	79	4	26	35	44	right	mid	left	right	Choose the square with the most dots	Crisp	-0.5	Verbal	0.5	LtoR	-0.5	Large	0.5	26:35:44	0.25	expected	1040	6.94697599213542	FALSE
s03	80	3	36	45	54	left	mid	right	right	Choose a square with few dots	Vague	0.5	Verbal	0.5	LtoR	-0.5	Small	-0.5	36:45:54	0.75	extreme	1845	7.52023455647463	FALSE
s03	81	1	6	15	24	left	mid	right	mid	Choose a square with about 10 dots	Vague	0.5	Numeric	-0.5	LtoR	-0.5	Small	-0.5	06:15:24	-0.75	borderline	1173	7.06731984865348	TRUE
s03	82	1	16	25	34	right	mid	left	right	Choose a square with about 30 dots	Vague	0.5	Numeric	-0.5	LtoR	-0.5	Large	0.5	16:25:34	-0.25	expected	1922	7.56112158953024	FALSE
s03	83	1	44	35	26	left	mid	right	left	Choose a square with about 40 dots	Vague	0.5	Numeric	-0.5	RtoL	0.5	Large	0.5	26:35:44	0.25	expected	656	6.48616078894409	FALSE
s03	84	3	54	45	36	left	mid	right	left	Choose a square with many dots	Vague	0.5	Verbal	0.5	RtoL	0.5	Large	0.5	36:45:54	0.75	expected	775	6.65286302935335	FALSE
s03	85	1	24	15	6	right	mid	left	right	Choose a square with about 10 dots	Vague	0.5	Numeric	-0.5	RtoL	0.5	Small	-0.5	06:15:24	-0.75	expected	1727	7.45414107814668	FALSE
s03	86	1	34	25	16	right	mid	left	right	Choose a square with about 20 dots	Vague	0.5	Numeric	-0.5	RtoL	0.5	Small	-0.5	16:25:34	-0.25	expected	1220	7.1066061377273	FALSE
s03	87	2	44	35	26	right	mid	left	right	Choose the square with 26 dots	Crisp	-0.5	Numeric	-0.5	RtoL	0.5	Small	-0.5	26:35:44	0.25	expected	2297	7.7393592026891	FALSE
s03	88	3	54	45	36	right	mid	left	right	Choose a square with few dots	Vague	0.5	Verbal	0.5	RtoL	0.5	Small	-0.5	36:45:54	0.75	expected	1848	7.52185925220163	FALSE
s03	89	2	24	15	6	left	mid	right	left	Choose the square with 24 dots	Crisp	-0.5	Numeric	-0.5	RtoL	0.5	Large	0.5	06:15:24	-0.75	expected	1267	7.14440718032114	FALSE
